# Sensor type: Respeck
# Activity type: Descending stairs
# Activity subtype: Normal
# Subject id: s2063346
# Notes: 1.9
timestamp,accel_x,accel_y,accel_z,gyro_x,gyro_y,gyro_z
1695747930544,-0.051757812,-1.0022583,0.105407715,0.34375,1.90625,0.625
1695747930588,-0.05053711,-0.9573364,0.11126709,0.421875,2.546875,1.015625
1695747930634,-0.034423828,-0.95635986,0.090026855,0.296875,2.5625,1.828125
1695747930663,-0.060302734,-0.9507446,0.08343506,-0.296875,5.15625,1.125
1695747930707,-0.087646484,-0.9475708,0.07489014,6.671875,7.9375,2.328125
1695747930760,-0.05810547,-0.95684814,0.018005371,5.03125,10.28125,0.03125
1695747930782,-0.06567383,-1.0098267,0.0065307617,4.859375,9.75,1.75
1695747930827,-0.07324219,-1.0108032,0.0289917,7.515625,7.671875,3.625
1695747930872,-0.037841797,-0.9924927,0.05999756,7.640625,7.640625,3.40625
1695747930901,-0.08618164,-1.0061646,0.04510498,4.0,4.25,3.015625
1695747930947,-0.10864258,-1.0269165,0.04486084,5.0,3.03125,1.921875
1695747930993,-0.10498047,-0.9824829,0.047302246,6.203125,4.78125,-0.375
1695747931022,-0.078125,-0.942688,0.031188965,2.1875,5.71875,-1.984375
1695747931066,-0.05810547,-0.9312134,0.047546387,0.28125,1.71875,-1.71875
1695747931112,-0.052734375,-0.89385986,0.055114746,-6.0,-1.578125,-1.5
1695747931142,-0.123291016,-0.88067627,0.020935059,-8.8125,-2.328125,-2.921875
1695747931187,-0.08886719,-0.8250122,0.027038574,-6.578125,-4.40625,-5.53125
1695747931220,-0.123291016,-0.7803345,0.082458496,-3.84375,-4.40625,-2.59375
1695747931261,-0.16796875,-0.82476807,0.0993042,-9.203125,-0.859375,-4.3125
1695747931307,-0.056152344,-0.76763916,0.059509277,-2.46875,-1.1875,-0.609375
1695747931336,-0.13452148,-0.70880127,0.0368042,-1.25,-1.28125,1.625
1695747931382,-0.11645508,-0.7288208,-0.029846191,0.15625,-3.3125,-0.875
1695747931427,-0.0146484375,-0.94610596,-0.051818848,-1.953125,-1.71875,3.4375
1695747931457,-0.030517578,-1.3447876,0.15008545,-10.71875,11.15625,1.0
1695747931502,0.31469727,-1.7061157,0.12957764,-7.625,7.640625,6.546875
1695747931547,0.030517578,-1.312561,0.18548584,13.40625,-0.296875,-3.140625
1695747931577,-0.2163086,-0.9331665,0.009460449,15.890625,0.046875,-1.890625
1695747931622,-0.05859375,-1.1087036,0.10614014,7.09375,1.78125,-1.875
1695747931667,0.1652832,-1.2581177,0.17425537,4.546875,-2.078125,3.203125
1695747931697,-0.09375,-0.98516846,0.0848999,10.359375,-2.578125,-0.53125
1695747931742,-0.01586914,-0.92974854,-0.023986816,14.09375,-3.546875,5.984375
1695747931788,0.16552734,-1.0401001,0.042907715,7.46875,-2.375,10.140625
1695747931817,0.024658203,-0.8648071,0.09857178,7.375,-4.734375,4.9375
1695747931865,-0.06323242,-0.82110596,0.13519287,-0.65625,-0.75,-0.40625
1695747931908,-0.099853516,-0.82159424,0.1930542,-8.40625,10.09375,-10.5
1695747931937,-0.11010742,-0.66534424,0.14129639,-7.609375,27.4375,-20.828125
1695747931982,0.067871094,-0.5852661,0.097839355,-15.34375,29.9375,-16.0625
1695747932012,-0.03173828,-0.6699829,0.13787842,-19.8125,19.828125,-14.59375
1695747932057,-0.08105469,-0.9019165,0.109802246,-8.59375,15.5,-11.390625
1695747932103,0.08227539,-0.92681885,0.18328857,-1.53125,9.515625,-5.109375
1695747932132,-7.324219E-4,-0.9578247,0.0524292,5.609375,-0.34375,2.296875
1695747932179,0.18725586,-1.1694946,-0.17218018,-0.015625,-12.859375,15.65625
1695747932223,0.059814453,-1.6951294,-0.44683838,6.484375,-20.46875,29.890625
1695747932253,-0.07421875,-1.8452759,0.12738037,13.8125,-6.296875,6.09375
1695747932297,-0.26660156,-1.2146606,0.2098999,-0.1875,0.171875,-11.1875
1695747932343,-0.09106445,-0.88116455,-0.07159424,2.390625,-6.40625,-1.90625
1695747932374,-0.12866211,-1.0090942,-0.10333252,4.640625,1.265625,-2.296875
1695747932418,-0.068603516,-1.0186157,-0.07940674,9.34375,9.046875,-5.8125
1695747932463,0.048583984,-0.76153564,-0.038635254,0.8125,5.09375,-0.765625
1695747932492,-0.0859375,-0.8814087,-0.022521973,-5.0625,-1.03125,0.578125
1695747932539,-0.088134766,-0.9390259,-0.03326416,-0.21875,3.125,-0.25
1695747932585,-0.014404297,-0.94732666,-0.06109619,-8.015625,-0.34375,1.921875
1695747932628,-0.08154297,-1.0523071,0.04071045,-8.671875,-5.359375,2.0625
1695747932657,-0.17602539,-0.9697876,0.11981201,-7.03125,0.0,-3.546875
1695747932688,-0.16186523,-0.8833618,0.07342529,-19.359375,-0.3125,-6.96875
1695747932734,-0.14941406,-0.9517212,0.09075928,-17.71875,-0.859375,-9.390625
1695747932778,-0.14575195,-0.92266846,0.120788574,-13.828125,-0.65625,-11.03125
1695747932808,-0.14819336,-0.7473755,0.1329956,-14.4375,5.109375,-10.25
1695747932853,-0.12841797,-0.6968384,0.12298584,-7.828125,1.609375,-4.453125
1695747932898,-0.092041016,-0.66412354,0.078308105,0.921875,2.15625,0.15625
1695747932927,-0.068115234,-0.6038208,0.06048584,7.171875,3.125,2.328125
1695747932975,-0.079589844,-0.6218872,0.031188965,9.890625,-4.640625,4.140625
1695747933017,-0.08691406,-0.8875122,0.08392334,3.03125,5.625,2.1875
1695747933049,0.016845703,-1.2981567,0.093444824,-0.09375,4.03125,1.921875
1695747933093,0.2512207,-1.8001099,0.0914917,-3.859375,-0.640625,13.9375
1695747933138,-0.1159668,-1.843811,0.44573975,5.765625,-3.9375,-0.890625
1695747933168,-0.29174805,-1.156311,0.066101074,14.328125,2.296875,-4.46875
1695747933213,-0.05517578,-1.0125122,0.055114746,11.203125,-0.015625,-0.65625
1695747933259,-0.040283203,-1.0234985,0.2538452,6.390625,2.90625,3.578125
1695747933288,0.037597656,-0.8892212,0.06390381,6.734375,6.8125,-0.4375
1695747933335,0.07714844,-0.62823486,0.005065918,10.03125,2.0625,1.796875
1695747933377,-0.0017089844,-0.798645,0.085876465,1.09375,1.546875,2.109375
1695747933408,0.018798828,-0.8748169,0.11199951,-5.328125,1.15625,1.140625
1695747933453,-0.076660156,-0.7727661,0.14202881,-3.921875,2.75,-4.421875
1695747933483,-0.08496094,-0.8115845,0.13421631,0.3125,9.40625,-3.171875
1695747933527,-0.044677734,-0.77056885,0.12664795,-0.984375,8.40625,-2.625
1695747933572,0.018798828,-0.8772583,0.12786865,-1.265625,7.40625,-0.71875
1695747933619,-0.021484375,-0.9885864,0.20257568,-3.640625,4.28125,0.640625
1695747933647,-0.05029297,-1.0430298,0.23162842,-2.859375,2.328125,-1.171875
1695747933707,-0.047607422,-1.0332642,0.13006592,-0.34375,1.421875,0.34375
1695747933721,0.1496582,-1.0928345,0.0138549805,-2.140625,-4.765625,9.8125
1695747933767,0.092041016,-1.2363892,-0.10723877,8.625,-11.4375,18.109375
1695747933811,-0.034179688,-1.2649536,-0.032287598,8.890625,-1.546875,15.296875
1695747933842,0.028076172,-1.288147,-0.069885254,7.75,-2.40625,11.296875
1695747933905,-0.07324219,-1.1323853,0.10687256,6.109375,0.90625,3.28125
1695747933948,-0.15454102,-1.0401001,0.073913574,-3.296875,3.625,-2.609375
1695747933962,0.011230469,-1.0249634,-0.04840088,2.0625,2.1875,-1.703125
1695747934023,-0.033935547,-0.97247314,-0.024963379,3.0625,3.484375,-5.265625
1695747934052,0.045410156,-0.93463135,-0.03668213,1.421875,0.75,-0.609375
1695747934082,0.07104492,-0.9290161,0.0119018555,-2.78125,-4.625,2.6875
1695747934129,-0.06567383,-0.92193604,0.090270996,-6.71875,-8.71875,0.875
1695747934157,-0.123291016,-0.84552,0.066345215,-8.46875,-6.890625,-4.109375
1695747934219,-0.103515625,-0.79766846,-0.023498535,-11.546875,-3.375,-6.65625
1695747934247,-0.06567383,-0.78448486,0.020935059,-4.03125,-3.015625,-5.3125
1695747934278,-0.02709961,-0.76226807,0.047302246,-5.53125,-2.0,-3.96875
1695747934323,-0.008056641,-0.66778564,0.11468506,-0.25,2.71875,-1.03125
1695747934369,-0.107421875,-0.7210083,0.16400146,-12.390625,4.3125,-1.953125
1695747934398,0.022705078,-0.8255005,-0.05670166,-8.484375,-6.96875,-1.96875
1695747934442,0.013183594,-1.1306763,0.14471436,-4.0,12.34375,-2.796875
1695747934488,0.04345703,-1.4331665,0.16156006,-4.59375,-5.234375,-6.34375
1695747934517,0.08081055,-1.3342896,-0.08355713,7.109375,0.734375,-3.5
1695747934563,0.11376953,-1.5786743,0.24481201,7.140625,3.3125,2.171875
1695747934608,-0.17382812,-1.2422485,0.25628662,7.390625,-2.015625,-1.609375
1695747934637,-0.15698242,-0.8533325,-0.037902832,12.796875,8.046875,-8.578125
1695747934683,0.064941406,-0.93048096,0.13104248,11.515625,4.9375,0.546875
1695747934728,0.057128906,-1.0667114,0.14959717,-1.140625,5.453125,-0.171875
1695747934759,-0.024658203,-0.8208618,0.011169434,6.578125,5.984375,-0.203125
1695747934803,0.031982422,-0.86724854,0.08685303,2.546875,7.359375,-0.96875
1695747934849,-0.06640625,-0.9085083,0.18206787,-0.5625,9.921875,-3.84375
1695747934878,-0.032226562,-0.78692627,0.13153076,-1.796875,11.859375,-4.953125
1695747934923,0.016113281,-0.7810669,0.11224365,-5.671875,8.859375,-2.75
1695747934952,-0.016113281,-0.80059814,0.13909912,-3.21875,8.375,-4.578125
1695747934998,-0.06518555,-0.80792236,0.121276855,3.5625,10.515625,-3.15625
1695747935043,0.035888672,-0.84381104,0.13519287,-4.046875,7.09375,-2.125
1695747935072,-0.06347656,-0.95758057,0.24359131,-3.046875,4.203125,-4.0625
1695747935133,-0.1081543,-0.94415283,0.2345581,-0.265625,7.4375,-2.59375
1695747935180,0.021972656,-1.0679321,0.08294678,-2.671875,0.84375,2.78125
1695747935192,0.125,-1.2334595,-0.13580322,2.859375,-1.53125,12.25
1695747935253,0.03955078,-1.1668091,-0.11578369,12.953125,-4.921875,16.21875
1695747935282,-0.057861328,-1.3677368,-0.02545166,-3.578125,-0.765625,11.8125
1695747935313,0.049072266,-1.5293579,0.06488037,5.546875,-8.078125,6.25
1695747935373,-0.14648438,-1.0881958,0.16156006,12.828125,-2.625,-0.53125
1695747935403,-0.1694336,-0.8086548,0.059265137,1.96875,1.296875,-5.625
1695747935434,0.052490234,-0.95880127,-0.051086426,0.765625,-1.125,-0.21875
1695747935478,0.072021484,-0.88165283,-0.06817627,1.421875,-7.75,-0.734375
1695747935524,0.091796875,-0.90802,0.0036010742,1.6875,-12.1875,4.625
1695747935552,-0.01953125,-0.86724854,0.12835693,-1.953125,-17.140625,3.875
1695747935598,-0.17749023,-0.87091064,0.11468506,-13.359375,-16.109375,-1.453125
1695747935627,-0.036621094,-0.9102173,-0.014465332,-10.15625,-16.671875,-3.328125
1695747935673,0.011474609,-0.7620239,0.05731201,5.515625,-12.0625,-1.46875
1695747935719,-0.096191406,-0.64801025,0.08709717,-1.4375,-7.578125,-3.4375
1695747935748,0.02734375,-0.69122314,0.1071167,-4.1875,-13.59375,1.609375
1695747935793,-0.063964844,-0.7756958,0.061706543,-8.359375,-15.046875,-4.203125
1695747935839,0.10522461,-0.8574829,-0.09698486,-2.0625,-19.828125,-2.25
1695747935868,0.079833984,-1.1831665,0.06536865,-0.53125,-8.8125,0.5625
1695747935916,0.14892578,-1.4058228,0.09490967,-0.890625,-19.953125,0.625
1695747935958,-0.084472656,-1.5835571,0.09637451,1.890625,0.90625,-8.578125
1695747935987,0.06738281,-1.4275513,0.17401123,4.75,-8.546875,-4.5
1695747936033,-0.072509766,-1.1221313,0.14788818,-3.6875,-14.6875,-5.78125
1695747936079,0.020751953,-0.96466064,0.124694824,8.5625,-12.46875,-2.71875
1695747936108,-0.041748047,-0.93634033,0.22479248,1.21875,-9.390625,-5.5625
1695747936153,0.012939453,-0.86920166,0.14276123,-1.75,-7.390625,-7.375
1695747936198,0.008300781,-0.7503052,0.1359253,0.734375,-9.984375,-6.0625
1695747936228,-0.08642578,-0.79571533,0.17108154,-1.375,-6.5625,-10.015625
1695747936274,0.0034179688,-0.81207275,0.15203857,-2.921875,-7.4375,-9.734375
1695747936318,0.032714844,-0.80792236,0.1708374,-8.328125,-13.28125,-4.28125
1695747936347,-0.072509766,-0.85772705,0.2296753,-6.921875,-16.78125,-5.140625
1695747936393,-0.107666016,-0.8526001,0.19891357,-0.734375,-17.0,-4.0
1695747936421,-0.06762695,-0.86676025,0.2008667,-2.0,-20.421875,-3.296875
1695747936484,-0.19506836,-0.86138916,0.24700928,-1.234375,-18.8125,-3.125
1695747936512,-0.16918945,-0.8543091,0.19207764,-3.421875,-15.1875,-3.765625
1695747936543,-0.018798828,-1.180481,0.04852295,-15.765625,-19.765625,5.796875
1695747936587,0.19897461,-1.4192505,-0.16729736,-1.546875,-23.078125,18.25
1695747936633,-0.10498047,-1.2573853,0.14715576,5.34375,-23.484375,17.703125
1695747936663,-0.19677734,-1.3062134,0.0927124,-6.484375,-16.90625,9.53125
1695747936708,0.119384766,-1.2866821,0.15716553,7.359375,-21.484375,14.109375
1695747936753,-0.1977539,-1.0005493,0.16741943,6.21875,-18.578125,4.0
1695747936782,-0.055419922,-1.0217896,-0.010803223,3.921875,-17.453125,1.53125
1695747936828,0.060302734,-0.9155884,0.02947998,2.46875,-19.71875,1.421875
1695747936872,-0.10229492,-0.9175415,0.0446167,1.859375,-19.953125,-1.53125
1695747936902,0.045898438,-0.9014282,0.066345215,-3.1875,-23.0,-0.0625
1695747936948,-0.07421875,-0.88482666,0.105163574,-4.59375,-26.84375,-0.171875
1695747937024,-0.14916992,-0.91290283,0.13153076,-2.40625,-23.671875,-2.1875
1695747937028,-0.12084961,-0.90997314,0.15228271,-3.78125,-20.1875,-5.328125
1695747937068,-0.23828125,-0.8323364,0.15130615,-5.171875,-14.734375,-7.9375
1695747937099,-0.2397461,-0.83551025,0.14471436,-10.25,-8.0625,-8.78125
1695747937143,-0.12475586,-0.741272,0.16497803,-6.953125,-11.15625,-4.1875
1695747937187,-0.26757812,-0.72052,0.16595459,-7.59375,-4.46875,-6.75
1695747937217,-0.12573242,-0.6746216,0.11810303,2.265625,-4.53125,-5.0
1695747937263,-0.11279297,-0.6416626,0.066589355,-3.078125,-14.71875,-4.578125
1695747937309,-0.034179688,-1.1240845,0.152771,-5.34375,-12.671875,-5.125
1695747937353,0.29101562,-1.5774536,0.05706787,5.9375,-11.4375,3.078125
1695747937381,0.33398438,-1.4214478,0.246521,0.875,-18.65625,8.578125
1695747937428,-0.027832031,-1.7144165,0.23260498,-0.21875,-25.234375,7.4375
1695747937458,-0.12695312,-1.223938,0.101257324,18.234375,-18.8125,1.5
1695747937503,-0.09887695,-0.973938,0.117126465,13.75,-14.453125,-1.140625
1695747937548,0.017578125,-0.9146118,0.17767334,10.265625,-13.515625,5.765625
1695747937593,0.119384766,-0.94000244,0.23162842,10.0625,-18.359375,9.125
1695747937623,-0.15698242,-0.7966919,0.12786865,5.90625,-14.328125,2.515625
1695747937669,-0.09326172,-0.8599243,0.09124756,5.703125,-7.453125,1.609375
1695747937699,-0.036132812,-0.97247314,0.20526123,-0.71875,-3.375,0.296875
1695747937743,-0.15161133,-0.93170166,0.19403076,-3.5625,4.15625,-7.453125
1695747937788,-0.010253906,-0.91729736,0.1906128,-4.734375,6.15625,-10.703125
1695747937818,0.029052734,-0.9456177,0.18621826,-5.90625,-0.4375,-6.6875
1695747937864,-0.059570312,-0.9151001,0.28753662,-2.734375,-10.390625,-4.9375
1695747937893,-0.24438477,-0.96173096,0.25115967,-5.5,-9.265625,-9.953125
1695747937940,-0.021728516,-1.1848755,0.008239746,-10.59375,-13.140625,-6.765625
1695747937985,0.21899414,-1.3269653,-0.21685791,2.25,-19.828125,9.046875
1695747938058,-0.21948242,-1.1497192,0.13812256,18.546875,-5.453125,6.328125
1695747938062,-0.046142578,-0.8242798,-0.004699707,4.09375,0.890625,-4.0625
1695747938102,0.14916992,-1.0029907,-0.16925049,-1.765625,-9.8125,6.6875
1695747938133,-0.030029297,-1.1275024,0.0099487305,14.234375,-10.984375,8.5
1695747938179,-0.17700195,-0.9170532,0.053649902,9.5625,-5.875,1.28125
1695747938223,-0.056640625,-0.9546509,-0.046691895,1.40625,-2.875,3.125
1695747938253,-0.103759766,-0.927063,-0.05230713,7.15625,-4.375,1.203125
1695747938299,-0.10888672,-0.97247314,-0.074523926,5.125,-4.234375,0.5625
1695747938343,-0.011474609,-0.9920044,-0.01739502,3.734375,-5.265625,4.9375
1695747938373,-9.765625E-4,-0.9194946,0.00970459,-3.1875,-9.296875,5.078125
1695747938418,-0.05810547,-1.0310669,0.034851074,-4.578125,-12.515625,3.421875
1695747938495,-0.14941406,-0.9812622,0.011169434,-7.40625,-11.34375,-2.640625
1695747938499,-0.10205078,-0.8748169,-0.011291504,-4.390625,-11.203125,-4.546875
1695747938539,-0.09814453,-0.83306885,-0.0056762695,-6.28125,-10.5625,-5.046875
1695747938568,-0.087402344,-0.8731079,0.03363037,-6.703125,-10.0625,-1.703125
1695747938613,-0.061035156,-0.83673096,0.050964355,-8.90625,-13.796875,0.421875
1695747938659,-0.095947266,-0.74420166,0.050231934,-3.25,-11.875,2.734375
1695747938688,-0.09716797,-0.7178345,0.07244873,-1.46875,-8.015625,3.359375
1695747938733,-0.15283203,-0.81451416,0.06439209,-4.390625,-6.015625,0.84375
1695747938778,-0.05859375,-0.72735596,0.005554199,1.171875,-10.015625,3.1875
1695747938807,-0.07495117,-0.83428955,0.002380371,-1.984375,-8.6875,3.0625
1695747938853,0.05810547,-1.1748657,0.086120605,-1.90625,6.890625,-0.265625
1695747938898,0.22143555,-1.2822876,0.012878418,4.8125,-1.125,8.265625
1695747938929,-0.014404297,-1.4341431,-0.004699707,-3.3125,-2.046875,1.984375
1695747938974,0.12597656,-1.7681274,0.230896,-0.171875,2.109375,0.0625
1695747939019,-0.12573242,-1.2249146,0.12347412,6.40625,2.1875,-2.296875
1695747939047,0.009521484,-0.90167236,-0.010070801,11.484375,0.34375,-2.28125
1695747939094,0.0017089844,-0.9673462,0.14349365,4.78125,-1.375,5.234375
1695747939138,0.010253906,-0.92926025,0.08343506,-1.265625,0.40625,-1.9375
1695747939167,0.052246094,-0.7337036,0.0065307617,-2.25,1.328125,-1.5
1695747939214,0.0087890625,-0.90753174,0.11981201,-1.890625,2.546875,-1.890625
1695747939261,0.019042969,-0.8665161,0.13006592,-7.640625,2.578125,-5.265625
1695747939288,-0.018310547,-0.83551025,0.13861084,-9.15625,2.8125,-6.609375
1695747939333,-0.02734375,-0.8694458,0.124694824,-0.0625,1.546875,-4.296875
1695747939362,-0.017578125,-0.70880127,0.077819824,4.296875,4.375,-3.796875
1695747939408,-0.0026855469,-0.7324829,0.06561279,2.625,4.171875,-3.046875
1695747939453,-0.071777344,-0.8440552,0.11883545,0.828125,3.796875,-2.9375
1695747939483,-0.05078125,-0.9360962,0.16644287,-2.1875,4.375,-6.390625
1695747939528,-0.09887695,-0.9495239,0.17645264,-2.46875,6.625,-7.375
1695747939574,-0.05053711,-1.0391235,0.05682373,-5.5625,3.375,-3.734375
1695747939603,0.15307617,-1.1577759,-0.1182251,-1.296875,-1.90625,6.40625
1695747939647,0.12597656,-1.2903442,-0.18634033,-0.359375,-0.0625,18.109375
1695747939693,0.04296875,-1.5215454,-0.018127441,3.046875,-2.703125,12.75
1695747939723,-0.14257812,-1.3338013,0.28070068,4.984375,-1.609375,-2.546875
1695747939769,-0.2631836,-1.0010376,0.1486206,-5.15625,4.90625,-12.390625
1695747939813,-0.1003418,-1.116272,0.0014038086,1.015625,2.90625,-4.78125
1695747939842,-0.10058594,-0.9956665,-0.019104004,9.953125,6.6875,-6.9375
1695747939888,0.014404297,-0.8308716,0.008239746,4.90625,4.375,-2.078125
1695747939965,-0.07128906,-0.9024048,0.0524292,-3.4375,-0.921875,2.15625
1695747939970,-0.08959961,-0.8921509,0.0289917,1.0625,0.578125,1.015625
1695747940008,-0.064697266,-0.8960571,0.049987793,-0.78125,-0.546875,-0.578125
1695747940054,-0.15161133,-0.90875244,0.09539795,-8.609375,0.0625,-3.390625
1695747940083,-0.19604492,-0.96221924,0.08148193,-9.953125,1.0625,-5.640625
1695747940128,-0.111572266,-0.909729,0.06878662,-7.234375,0.546875,-6.359375
1695747940157,-0.11767578,-0.81427,0.06097412,-4.5625,1.453125,-4.5
1695747940203,-0.08325195,-0.75909424,0.08465576,-3.734375,0.984375,-0.796875
1695747940248,-0.10571289,-0.8049927,0.11004639,-3.0,0.6875,1.46875
1695747940308,-0.1237793,-0.7786255,0.058044434,-1.859375,-0.796875,0.671875
1695747940323,-0.091308594,-0.73760986,0.04901123,1.859375,-5.609375,0.421875
1695747940368,-0.16601562,-0.86553955,0.10345459,-3.296875,-1.234375,-3.203125
1695747940397,-0.0087890625,-1.1970825,0.1005249,-4.921875,3.96875,-2.609375
1695747940444,0.18896484,-1.2337036,0.05340576,4.03125,-2.796875,2.3125
1695747940489,0.07324219,-1.2886353,-0.026184082,6.203125,-9.0625,4.40625
1695747940517,0.053222656,-1.6970825,0.34979248,-1.5,-13.625,2.796875
1695747940563,-0.29663086,-1.2998657,0.23065186,13.9375,-15.890625,-3.875
1695747940608,-0.114746094,-0.8858032,-0.04058838,20.25,-5.421875,-9.015625
1695747940637,0.09667969,-0.9126587,0.12249756,6.3125,-9.53125,0.390625
1695747940683,-0.024902344,-1.0012817,0.16497803,-2.828125,-12.53125,1.03125
1695747940728,0.0063476562,-0.80914307,0.042175293,2.96875,-14.671875,-1.5
1695747940758,0.03149414,-0.81817627,0.10028076,0.765625,-16.46875,-4.953125
1695747940803,-0.032714844,-0.8711548,0.12298584,-2.625,-18.046875,-5.34375
1695747940848,0.017089844,-0.80352783,0.11395264,-4.296875,-21.390625,-4.953125
1695747940877,-0.052001953,-0.8804321,0.15985107,-5.59375,-25.171875,-4.4375
1695747940939,-0.08886719,-0.9002075,0.15838623,1.5625,-25.453125,-3.0
1695747940953,-0.008300781,-0.8428345,0.06756592,2.5625,-28.046875,2.609375
1695747940998,-0.092041016,-0.84820557,0.14398193,2.65625,-31.9375,-0.125
1695747941042,-0.24389648,-0.8999634,0.12567139,0.015625,-27.765625,-3.953125
1695747941072,-0.27563477,-0.97442627,0.18988037,-0.765625,-20.484375,-9.171875
1695747941119,-0.29345703,-0.9783325,0.121520996,-9.90625,-17.25,-10.578125
1695747941166,-0.20532227,-0.93463135,0.1930542,-11.25,-11.390625,-12.078125
1695747941193,-0.14208984,-1.0161743,0.035095215,-14.296875,-16.390625,-3.296875
1695747941238,0.24951172,-1.1763306,-0.14996338,-15.703125,-27.515625,10.8125
1695747941283,0.37304688,-1.3167114,-0.10601807,-8.421875,-41.828125,20.921875
1695747941312,-0.27075195,-1.5117798,0.058776855,-2.3125,-41.796875,13.4375
1695747941358,-0.11816406,-1.4263306,0.047790527,15.703125,-32.765625,4.84375
1695747941434,-0.05517578,-0.989563,0.085632324,7.125,-29.625,-2.90625
1695747941439,-0.053955078,-0.9651489,0.08538818,-2.59375,-35.671875,1.03125
1695747941479,-0.00390625,-0.96295166,0.06439209,0.3125,-40.328125,4.765625
1695747941510,0.021972656,-0.83843994,0.007019043,4.078125,-38.75,4.59375
1695747941583,7.324219E-4,-0.9053345,0.010437012,1.390625,-38.28125,5.671875
1695747941598,-0.14086914,-1.0339966,0.03778076,-2.046875,-36.359375,4.03125
1695747941628,-0.057128906,-0.93463135,0.04486084,9.984375,-30.609375,2.203125
1695747941673,-0.1015625,-0.9495239,0.08026123,-0.90625,-28.0,-0.90625
1695747941718,-0.14746094,-1.0120239,0.12200928,0.546875,-26.265625,-1.421875
1695747941747,-0.10571289,-0.9505005,0.05706787,-1.578125,-23.109375,-2.53125
1695747941793,-0.115722656,-0.96881104,0.0524292,-2.1875,-20.28125,-0.921875
1695747941838,-0.13989258,-0.9846802,0.0914917,-2.84375,-20.6875,-0.59375
1695747941867,-0.14038086,-0.944397,0.11077881,-3.40625,-18.421875,0.484375
1695747941914,-0.09350586,-0.9446411,0.105407715,-6.765625,-17.6875,2.25
1695747941958,-0.18237305,-0.97491455,0.0692749,-8.359375,-17.265625,1.546875
1695747941988,-0.122558594,-1.109436,0.08734131,-11.984375,-13.6875,-1.421875
1695747942035,0.03564453,-1.2122192,0.085876465,-14.9375,-10.09375,2.90625
1695747942078,0.28198242,-1.0618286,0.074401855,-13.953125,-16.859375,7.265625
1695747942107,0.14038086,-0.8687134,0.036071777,0.59375,-25.046875,11.21875
1695747942154,-0.06542969,-0.7251587,0.08685303,15.125,-19.40625,11.921875
1695747942200,-0.012451172,-1.0278931,0.17303467,-2.9375,-14.046875,3.875
1695747942227,0.06591797,-1.1694946,0.074157715,3.734375,-11.78125,-0.84375
1695747942273,0.07519531,-0.97320557,0.010681152,8.40625,-4.5,-0.75
1695747942302,0.09423828,-0.94610596,0.152771,2.5625,-8.4375,2.609375
1695747942348,-0.025878906,-0.9505005,0.14813232,-1.546875,-11.390625,3.671875
1695747942394,0.014892578,-0.9507446,0.15814209,-0.328125,-7.84375,0.921875
1695747942424,0.013916016,-0.9404907,0.12347412,1.28125,-5.609375,-0.859375
1695747942468,-0.033203125,-0.9500122,0.09442139,1.703125,-0.640625,-4.46875
1695747942513,-0.012939453,-0.89849854,0.12200928,3.578125,6.65625,-6.546875
1695747942543,-0.057617188,-0.8233032,0.1317749,1.296875,10.203125,-9.359375
1695747942588,0.0078125,-0.80596924,0.11639404,-2.484375,9.03125,-5.875
1695747942633,0.0029296875,-0.7710571,0.090270996,1.4375,9.375,-3.984375
1695747942663,-0.0024414062,-0.75738525,0.050476074,2.71875,9.390625,-3.796875
1695747942708,0.03149414,-0.8965454,0.13641357,-3.15625,5.09375,-3.234375
1695747942753,-0.06713867,-1.0320435,0.21160889,-4.1875,6.109375,-6.9375
1695747942783,-0.072021484,-1.0422974,0.21502686,-0.546875,7.234375,-7.09375
1695747942828,-0.0012207031,-0.9714966,0.2020874,2.875,6.984375,-7.015625
1695747942873,-0.09716797,-0.8804321,0.13812256,5.171875,8.234375,-7.28125
1695747942904,-0.030029297,-1.0217896,-0.0056762695,2.328125,9.4375,-0.734375
1695747942948,0.20654297,-1.161438,-0.22247314,7.234375,3.59375,9.875
1695747942977,0.12646484,-1.1912231,-0.06842041,10.203125,-1.234375,14.796875
1695747943022,-0.16381836,-1.4268188,-0.028625488,-6.96875,-1.328125,7.296875
1695747943068,0.103271484,-1.5234985,0.04071045,15.375,-1.4375,3.828125
1695747943097,-0.18701172,-0.972229,0.1227417,11.40625,-3.96875,-7.8125
1695747943143,-0.17822266,-0.9290161,0.08343506,2.734375,1.484375,-4.84375
1695747943188,-0.0107421875,-0.83673096,-0.0569458,-0.125,2.046875,2.5625
1695747943217,-0.040039062,-0.8460083,-0.07720947,0.03125,-3.0,-0.5
1695747943263,-0.06298828,-0.96539307,-0.020324707,-0.484375,-3.484375,2.5
1695747943309,-0.053710938,-0.9885864,0.019470215,-2.9375,-4.890625,1.5625
1695747943338,-0.15307617,-0.9898071,0.054870605,-4.921875,-1.015625,-0.859375
1695747943383,-0.17089844,-0.99591064,0.051940918,-10.9375,2.890625,-4.8125
1695747943429,-0.07763672,-0.92926025,0.02947998,-7.515625,4.640625,-5.640625
1695747943457,-0.084228516,-0.82110596,0.013366699,-6.703125,3.53125,-5.09375
1695747943503,-0.12573242,-0.79107666,0.054138184,-7.515625,3.546875,-3.546875
1695747943550,-0.033203125,-0.7854614,0.062927246,-1.984375,2.515625,-0.140625
1695747943578,-0.018554688,-0.6946411,0.044128418,-2.796875,2.53125,3.171875
1695747943624,-0.11035156,-0.7896118,0.08465576,-4.59375,5.296875,2.46875
1695747943668,-0.020996094,-0.82476807,0.028259277,0.8125,-3.390625,2.75
1695747943697,-0.044921875,-0.8010864,0.03704834,1.015625,-5.40625,2.59375
1695747943744,-0.08251953,-1.237854,0.11004639,-9.921875,8.484375,-3.71875
1695747943773,0.16381836,-1.498352,0.047790527,9.234375,5.71875,-3.5
1695747943819,0.13867188,-1.2332153,-0.09259033,11.984375,4.34375,-5.3125
1695747943863,0.1628418,-1.413147,0.1359253,2.21875,5.5625,1.859375
1695747943892,-0.20263672,-1.2449341,0.22601318,-4.78125,0.8125,-1.65625
1695747943940,-0.08496094,-0.9295044,0.027770996,5.609375,4.359375,-6.15625
1695747943984,0.08129883,-0.9133911,0.0028686523,3.921875,-3.3125,0.0625
1695747944012,0.09716797,-1.0222778,0.09100342,4.1875,-3.5,4.078125
1695747944073,0.0703125,-0.86187744,0.04876709,-1.15625,-4.046875,6.4375
1695747944148,-0.02734375,-0.92974854,0.06463623,3.328125,-7.96875,5.96875
1695747944153,-0.044433594,-0.9727173,0.11224365,3.96875,-5.3125,2.90625
1695747944179,-0.06738281,-0.895813,0.13885498,1.6875,-1.546875,-0.828125
1695747944223,-0.14526367,-0.8855591,0.1395874,-1.03125,4.640625,-6.546875
1695747944253,-0.032958984,-0.8674927,0.11248779,-2.46875,5.125,-8.28125
1695747944299,-0.015380859,-0.7764282,0.14935303,-2.84375,6.140625,-6.25
1695747944342,-0.0925293,-0.76348877,0.074645996,-2.109375,6.671875,-6.78125
1695747944372,0.03100586,-0.8106079,0.050231934,2.640625,5.0625,-5.1875
1695747944418,-0.013183594,-0.862854,0.13323975,-1.578125,4.0,-3.140625
1695747944448,-0.1496582,-0.9258423,0.1515503,-2.9375,6.9375,-8.65625
1695747944495,-0.07104492,-1.0022583,0.113708496,-6.375,6.25,-9.046875
1695747944538,0.08544922,-1.2722778,-0.008117676,-10.859375,-4.53125,-0.46875
1695747944567,0.1459961,-1.3013306,-0.089904785,4.828125,-7.203125,9.875
1695747944614,-0.27734375,-1.1314087,0.012390137,-8.953125,4.453125,4.953125
1695747944659,0.19824219,-1.3059692,-0.11260986,0.40625,-1.28125,8.609375
1695747944688,-0.10595703,-1.281311,0.18695068,7.34375,1.828125,5.046875
1695747944733,-0.2849121,-0.9807739,0.09979248,3.328125,9.265625,-8.84375
1695747944778,0.018554688,-1.022522,0.04510498,2.140625,5.171875,1.40625
1695747944809,-0.08081055,-0.9915161,0.024597168,3.59375,6.34375,0.609375
1695747944854,-0.13452148,-0.94854736,0.001159668,6.703125,10.375,0.171875
1695747944898,0.0017089844,-0.8735962,0.001159668,4.84375,8.1875,1.6875
1695747944928,0.009033203,-0.9873657,0.012634277,1.078125,3.140625,6.5625
1695747944973,-0.053710938,-0.97491455,0.04144287,3.0625,0.484375,4.75
1695747945018,-0.080322266,-0.97662354,0.085876465,-0.921875,1.90625,1.765625
1695747945048,-0.125,-1.0171509,0.1161499,-6.453125,3.421875,-2.609375
1695747945093,-0.1652832,-0.9133911,0.07342529,-5.28125,3.625,-5.90625
1695747945138,-0.13500977,-0.8286743,0.027526855,-7.125,2.796875,-6.796875
1695747945167,-0.07763672,-0.84869385,0.059509277,-5.796875,3.09375,-5.3125
1695747945214,-0.072753906,-0.7905884,0.07904053,-1.40625,6.671875,-3.9375
1695747945243,-0.017333984,-0.6604614,0.06854248,2.4375,7.484375,1.671875
1695747945288,-0.018798828,-0.70147705,0.054870605,-3.8125,2.140625,5.375
1695747945334,-0.16577148,-0.84039307,0.061950684,-2.125,0.015625,3.921875
1695747945362,-0.13647461,-0.91656494,-0.026184082,4.234375,-1.265625,2.0
1695747945424,0.008300781,-1.1550903,0.09466553,-2.78125,5.640625,-0.65625
1695747945452,0.083496094,-1.2839966,0.0045776367,3.234375,5.234375,-2.671875
1695747945483,0.1875,-1.3518677,-0.10626221,4.78125,-2.125,-0.84375
1695747945529,0.01586914,-1.538147,0.22821045,5.734375,0.53125,-5.640625
1695747945573,-0.20239258,-1.1130981,0.1239624,13.34375,3.671875,-3.25
1695747945603,-0.115234375,-0.833313,-0.015197754,6.609375,-0.671875,-6.796875
1695747945648,0.087646484,-1.0999146,0.121276855,-4.0625,-6.75,-1.328125
1695747945695,0.06591797,-1.2051392,0.09686279,-1.390625,-7.6875,3.296875
1695747945724,-0.0063476562,-0.8855591,-0.009338379,5.375,-4.984375,-0.515625
1695747945768,-0.068359375,-0.91070557,0.05267334,0.9375,-5.203125,-1.984375
1695747945813,-0.020751953,-0.9612427,0.06781006,-8.90625,-5.078125,0.375
1695747945843,-0.03515625,-0.88604736,0.086364746,-6.625,-3.15625,-0.5
1695747945903,-0.08081055,-0.927063,0.13446045,-9.453125,1.921875,-6.546875
1695747945918,-0.05810547,-0.88116455,0.13812256,-10.96875,2.796875,-8.140625
1695747945963,-0.033447266,-0.86920166,0.15887451,-11.03125,1.5,-7.703125
1695747946009,-0.048828125,-0.8308716,0.12005615,-3.34375,2.296875,-4.90625
1695747946056,-0.048095703,-0.7695923,0.09320068,2.1875,3.4375,-2.375
1695747946083,-0.020019531,-0.8010864,0.09075928,4.234375,1.453125,0.546875
1695747946128,-0.043701172,-0.8604126,0.13250732,1.875,2.078125,0.59375
1695747946158,-0.064208984,-0.91900635,0.18011475,1.515625,1.21875,-1.5625
1695747946203,-0.17749023,-0.89849854,0.168396,-2.203125,4.109375,-5.875
1695747946251,-0.091796875,-1.0669556,0.054382324,-2.984375,2.421875,-1.984375
1695747946278,0.13085938,-1.2495728,-0.06451416,-4.46875,-7.046875,7.1875
1695747946323,0.03149414,-1.2285767,-0.051574707,1.0625,-7.765625,9.5
1695747946368,-0.10180664,-1.3782349,0.0692749,-5.96875,4.515625,3.65625
1695747946397,-0.05029297,-1.3447876,0.09588623,5.828125,2.4375,3.703125
1695747946443,-0.23510742,-1.0635376,0.13812256,6.703125,4.40625,-7.578125
1695747946488,-0.092041016,-0.9639282,0.09906006,0.3125,3.0625,-2.90625
1695747946517,-0.099853516,-0.9463501,0.054138184,4.078125,5.59375,-0.265625
1695747946565,-0.075683594,-0.8674927,-0.04156494,9.4375,7.5625,-0.390625
1695747946638,0.021972656,-0.88360596,-0.023742676,9.40625,5.734375,4.140625
1695747946643,-0.029541016,-0.9812622,0.018737793,4.046875,0.171875,4.90625
1695747946698,-0.032226562,-0.98883057,0.06536865,6.4375,-0.359375,5.40625
1695747946713,-0.11645508,-0.96881104,0.109558105,-0.71875,0.140625,3.34375
1695747946762,-0.12768555,-1.0420532,0.08270264,-6.171875,-0.734375,-0.046875
1695747946803,-0.09667969,-1.0122681,0.07904053,-6.015625,-0.796875,-2.828125
1695747946832,-0.14257812,-0.82769775,0.08001709,-4.25,-0.6875,-4.765625
1695747946878,-0.15405273,-0.77667236,0.055114746,-5.5625,1.40625,-6.375
1695747946923,-0.09301758,-0.8242798,0.054870605,-1.9375,2.390625,-5.0625
1695747946953,-0.07714844,-0.79888916,0.09442139,-5.90625,4.03125,-1.9375
1695747946998,-0.09277344,-0.89556885,0.10223389,-6.609375,1.90625,0.890625
1695747947044,-0.0769043,-0.8711548,0.08050537,-0.8125,-1.140625,1.640625
1695747947072,-0.13500977,-0.7136841,0.097595215,4.8125,-2.046875,1.515625
1695747947119,-0.15112305,-0.83062744,0.051940918,-2.796875,-3.984375,0.703125
1695747947164,-0.0063476562,-1.1062622,0.06585693,1.21875,5.65625,-0.109375
1695747947192,0.08325195,-1.2778931,0.08026123,0.59375,5.765625,0.15625
1695747947238,0.13769531,-1.4363403,-0.10430908,0.015625,-6.34375,2.0625
1695747947285,0.049560547,-1.5755005,0.31585693,5.578125,-4.859375,-1.875
1695747947313,-0.25195312,-1.2769165,0.078063965,11.96875,-0.15625,-4.890625
1695747947358,-0.11791992,-0.8982544,0.07952881,9.0,1.265625,-7.953125
1695747947387,-0.057861328,-0.95196533,0.15545654,0.46875,2.09375,2.78125
1695747947434,0.080322266,-0.9939575,0.04071045,-0.03125,3.84375,1.984375
1695747947478,-0.008300781,-0.7966919,0.0119018555,5.03125,-0.1875,1.28125
1695747947509,-0.020996094,-0.9829712,0.08734131,-3.453125,1.609375,0.15625
1695747947553,-0.033691406,-0.9812622,0.08856201,-0.34375,0.21875,2.0625
1695747947598,-0.049560547,-0.9307251,0.061950684,0.09375,-0.671875,-0.0625
1695747947628,-0.11206055,-0.972229,0.1395874,1.3125,2.15625,-3.046875
1695747947674,-0.103027344,-0.9246216,0.13763428,0.296875,5.984375,-4.25
1695747947733,-0.07519531,-0.8406372,0.12738037,-2.765625,6.859375,-6.15625
1695747947748,-0.040039062,-0.7737427,0.11541748,0.25,7.0,-5.953125
1695747947795,-0.06542969,-0.75616455,0.094177246,-0.390625,7.65625,-2.5
1695747947839,-0.06982422,-0.76934814,0.030944824,5.921875,7.3125,-3.15625
1695747947868,-0.02319336,-0.8064575,0.08050537,6.125,6.84375,-0.625
1695747947913,-0.040039062,-0.90704346,0.06585693,1.5625,5.203125,-0.203125
1695747947989,-0.09082031,-0.9536743,0.10272217,1.84375,6.828125,-1.953125
1695747947994,-0.1772461,-1.0305786,0.13128662,0.078125,9.71875,-5.0625
1695747948034,-0.026855469,-1.1721802,0.018249512,-7.609375,6.71875,-1.078125
1695747948111,0.14526367,-1.192688,-0.08917236,-0.828125,-1.671875,6.015625
1695747948115,-0.09765625,-1.192688,-0.020324707,-11.859375,0.890625,8.828125
1695747948154,-0.12866211,-1.550354,-0.028625488,-14.734375,3.796875,0.859375
1695747948184,0.09838867,-1.3169556,0.013122559,17.1875,0.4375,1.765625
1695747948228,-0.21240234,-0.7178345,0.20599365,1.5,3.546875,-5.28125
1695747948274,-0.30493164,-1.0134888,0.1317749,-18.578125,1.515625,-3.890625
1695747948303,0.037597656,-1.0779419,-0.06060791,-2.265625,2.125,-4.625
1695747948349,-0.020751953,-0.8796997,-0.06866455,1.234375,-0.359375,-7.078125
1695747948394,-0.044189453,-0.9602661,0.081970215,1.28125,0.53125,1.59375
1695747948439,-0.1381836,-0.9849243,0.11395264,-2.515625,-1.625,1.8125
1695747948484,-0.18066406,-0.93170166,0.07366943,-7.171875,0.171875,-1.265625
1695747948512,-0.07299805,-1.0403442,0.044128418,-11.625,-2.125,-1.25
1695747948543,-0.111328125,-0.97125244,0.1305542,-4.046875,-1.828125,-0.84375
1695747948589,-0.18188477,-0.8591919,0.15106201,-5.5625,-0.6875,-1.875
1695747948633,-0.18530273,-0.8858032,0.12225342,-9.3125,-1.5,-3.078125
1695747948662,-0.1081543,-0.89923096,0.11053467,-5.046875,-2.109375,-1.78125
1695747948710,-0.11645508,-0.82598877,0.13470459,-5.859375,-3.390625,-0.484375
1695747948753,-0.0847168,-0.848938,0.117370605,2.546875,-6.875,3.0
1695747948783,-0.0925293,-0.7095337,0.15667725,4.234375,-6.0,3.96875
1695747948828,-0.15551758,-0.7505493,0.16156006,-5.59375,-6.25,4.734375
1695747948858,-0.15039062,-0.8833618,0.11053467,-1.3125,-13.265625,0.65625
1695747948904,-0.115234375,-0.78448486,0.090026855,4.953125,-10.21875,-3.671875
1695747948948,-0.091796875,-1.0513306,0.15716553,-3.984375,1.171875,-4.625
1695747948978,0.114990234,-1.2495728,0.105163574,-1.765625,-9.5625,-3.296875
1695747949024,0.10571289,-1.317688,0.04119873,-2.5625,-15.0625,-0.84375
1695747949069,-0.07885742,-1.7632446,0.37445068,1.890625,-16.265625,-4.34375
1695747949097,-0.22680664,-1.2764282,0.24847412,8.8125,-15.328125,-8.5625
1695747949142,-0.15429688,-0.7576294,-0.03692627,13.3125,-5.5625,-7.890625
1695747949189,-0.056152344,-0.85821533,0.13812256,9.609375,-6.96875,1.5625
1695747949217,-0.040771484,-0.97662354,0.262146,0.578125,-6.140625,-0.21875
1695747949263,-0.0012207031,-0.78692627,0.06463623,0.6875,-6.03125,-0.109375
1695747949308,-0.021484375,-0.7998657,0.08782959,1.578125,-6.8125,-0.171875
1695747949336,-0.04248047,-0.928772,0.16522217,0.96875,-9.515625,-1.4375
1695747949385,-0.095703125,-0.8496704,0.1461792,-0.40625,-12.90625,-3.625
1695747949442,-0.083496094,-0.9002075,0.18988037,-0.75,-14.484375,-5.203125
1695747949457,-0.10644531,-0.8833618,0.18304443,0.453125,-17.015625,-4.75
1695747949503,-0.09838867,-0.8677368,0.18060303,0.15625,-21.484375,-2.65625
1695747949548,-0.19091797,-0.8850708,0.19793701,-0.125,-24.84375,-5.28125
1695747949577,-0.28735352,-0.9456177,0.18572998,0.75,-23.515625,-9.390625
1695747949623,-0.17700195,-1.0532837,0.19891357,-5.75,-22.109375,-10.0625
1695747949653,-0.21142578,-1.0149536,0.2374878,-9.1875,-23.59375,-9.0625
1695747949698,-0.21459961,-0.86968994,0.19866943,-3.546875,-24.046875,-3.984375
1695747949744,-0.23022461,-0.95147705,0.11175537,-13.296875,-26.90625,0.578125
1695747949773,0.037109375,-1.2197876,-0.05987549,-16.203125,-32.828125,10.671875
1695747949818,0.15771484,-1.223938,-0.07696533,-9.921875,-44.296875,18.28125
1695747949863,-0.3017578,-1.1936646,0.11566162,-16.5625,-35.84375,10.53125
1695747949892,-0.10913086,-1.3960571,0.024353027,-5.15625,-43.609375,7.5
1695747949938,-0.10058594,-1.1939087,0.061706543,7.46875,-47.1875,4.09375
1695747949983,-0.20629883,-0.8713989,0.09881592,2.265625,-34.921875,-0.140625
1695747950013,-0.17285156,-0.90338135,0.12347412,-1.578125,-36.0,3.1875
1695747950058,-0.08642578,-0.8699341,0.035583496,-0.625,-38.015625,4.234375
1695747950103,-0.03930664,-0.93292236,-0.0029907227,-7.703125,-38.859375,7.890625
1695747950133,-0.1665039,-1.0715942,0.05731201,-3.703125,-36.734375,4.640625
1695747950195,-0.19555664,-0.9866333,0.105651855,5.03125,-28.03125,4.234375
1695747950238,-0.2043457,-0.9451294,0.15911865,-0.59375,-21.859375,0.90625
1695747950252,-0.18603516,-0.9673462,0.13348389,-6.015625,-19.234375,0.765625
1695747950298,-0.19067383,-0.9133911,0.11785889,-6.203125,-18.6875,0.71875
1695747950328,-0.19873047,-0.94610596,0.11639404,-5.265625,-17.40625,1.046875
1695747950374,-0.18823242,-0.9673462,0.101989746,-5.21875,-16.3125,2.09375
1695747950419,-0.17382812,-0.92852783,0.13909912,-1.25,-15.640625,2.765625
1695747950447,-0.22485352,-0.9661255,0.17572021,-3.859375,-15.046875,2.609375
1695747950493,-0.25927734,-0.9956665,0.14959717,-6.03125,-15.859375,3.125
1695747950538,-0.17895508,-1.1304321,0.090026855,-3.703125,-12.03125,0.984375
1695747950568,0.0078125,-1.1201782,0.15838623,-2.9375,-4.578125,5.234375
1695747950613,-0.015136719,-1.0283813,0.11102295,-10.984375,-14.6875,5.375
1695747950659,-0.13623047,-0.9126587,0.05267334,0.1875,-11.625,0.53125
1695747950687,0.13867188,-0.98687744,0.012878418,6.03125,-9.296875,4.453125
1695747950733,0.22314453,-0.86309814,0.09320068,0.359375,-12.859375,7.9375
1695747950779,-0.09838867,-0.91192627,0.12347412,-5.9375,-15.765625,6.03125
1695747950808,0.018066406,-1.1663208,0.11151123,3.046875,-8.140625,1.71875
1695747950853,0.11230469,-1.050354,0.09881592,5.328125,-9.625,2.296875
1695747950899,0.02709961,-0.95098877,0.101745605,3.296875,-12.015625,6.03125
1695747950928,-0.038330078,-0.991272,0.14593506,5.0,-10.875,8.703125
1695747950974,-0.039794922,-0.9702759,0.17767334,5.671875,-6.78125,6.5625
1695747951049,-0.0041503906,-0.9187622,0.13397217,2.953125,-2.578125,3.703125
1695747951054,0.004638672,-0.9065552,0.12591553,0.90625,0.21875,1.703125
1695747951093,-0.01953125,-0.8850708,0.14422607,-1.53125,1.734375,-1.328125
1695747951139,-0.040283203,-0.8953247,0.1593628,-2.328125,5.59375,-3.3125
1695747951168,-0.041503906,-0.8555298,0.12664795,-2.84375,7.328125,-6.0
1695747951213,-0.026611328,-0.8135376,0.1227417,0.90625,9.1875,-5.984375
1695747951242,-0.06958008,-0.7659302,0.09979248,2.015625,11.578125,-7.21875
1695747951288,-0.052246094,-0.7788696,0.109802246,2.0,12.984375,-5.5
1695747951335,-0.0234375,-0.8526001,0.1593628,-1.234375,10.28125,-5.203125
1695747951363,-0.06347656,-0.91778564,0.22064209,-2.109375,9.203125,-5.6875
1695747951408,-0.091308594,-0.93414307,0.2062378,-3.046875,7.9375,-6.21875
1695747951453,-0.022705078,-0.9741821,0.24383545,-4.5,2.46875,-5.859375
1695747951482,-0.05859375,-1.1138306,0.25335693,-10.515625,-1.546875,-2.6875
1695747951528,-0.01586914,-1.2546997,0.09686279,-7.703125,-6.484375,1.625
1695747951573,0.080322266,-1.1221313,-0.09967041,6.34375,-1.984375,11.125
1695747951602,-0.049316406,-1.2595825,-0.054016113,-0.75,0.671875,9.546875
1695747951648,0.064941406,-1.3713989,0.06048584,7.109375,0.65625,5.625
1695747951694,-0.09887695,-1.0025024,0.15618896,4.703125,-0.734375,0.03125
1695747951723,-0.27490234,-0.9561157,0.12664795,-0.546875,6.234375,-7.234375
1695747951768,0.0031738281,-1.0547485,-0.010070801,2.03125,2.234375,-4.421875
1695747951828,0.0026855469,-0.9771118,0.0038452148,1.5,-2.5,-3.03125
1695747951843,-0.07397461,-0.99102783,0.06512451,1.546875,-7.515625,1.796875
1695747951888,-0.0234375,-0.9067993,0.10076904,1.984375,-8.5625,5.03125
1695747951917,-0.11206055,-0.90460205,0.085632324,-3.5625,-7.796875,1.765625
1695747951963,-0.11987305,-0.942688,0.090270996,-4.21875,-5.25,-0.578125
1695747952009,-0.18408203,-0.9265747,0.08416748,-7.203125,-0.078125,-4.0625
1695747952038,-0.14526367,-0.88165283,0.06561279,-7.28125,1.203125,-4.265625
1695747952083,-0.09082031,-0.89849854,0.08905029,-13.1875,-0.3125,-1.5
1695747952128,-0.14404297,-0.847229,0.15814209,-3.8125,-1.875,-0.234375
1695747952157,-0.14624023,-0.76397705,0.15203857,-4.796875,3.78125,2.28125
1695747952205,-0.041992188,-0.76275635,0.13616943,-5.34375,-0.234375,2.078125
1695747952248,-0.123535156,-0.5803833,0.15130615,11.359375,3.4375,0.21875
1695747952278,-0.12988281,-0.53912354,0.08270264,-4.828125,-0.59375,-1.375
1695747952324,0.06542969,-0.9612427,-0.016418457,-8.421875,-5.828125,-0.953125
1695747952369,0.30517578,-1.5320435,0.11810303,12.109375,-0.296875,9.96875
1695747952398,0.0029296875,-1.392395,0.19793701,-0.453125,-14.59375,3.890625
1695747952443,-0.09838867,-1.7649536,0.23797607,-0.328125,3.046875,-6.609375
1695747952488,-0.13330078,-1.4595337,0.35931396,17.234375,-5.921875,-6.921875
1695747952517,0.068115234,-0.9209595,0.0138549805,7.296875,0.46875,-5.625
1695747952564,-0.09667969,-0.7432251,0.066345215,14.546875,-5.28125,5.8125
1695747952592,-0.087646484,-0.9312134,0.20404053,0.015625,1.4375,2.640625
1695747952638,0.072509766,-0.85601807,0.09173584,-1.609375,3.21875,-0.5625
1695747952683,-0.0146484375,-0.76104736,0.06756592,-0.828125,6.140625,-2.125
1695747952714,-0.059570312,-0.8201294,0.13031006,1.8125,9.671875,-4.65625
1695747952758,-0.0063476562,-0.79571533,0.14642334,-2.015625,9.484375,-3.359375
1695747952803,-0.049560547,-0.80718994,0.15008545,-1.546875,7.796875,-2.484375
1695747952863,-0.01586914,-0.78863525,0.09686279,2.171875,7.25,-1.171875
1695747952878,0.06762695,-0.84381104,0.09710693,-1.6875,2.5,-1.765625
1695747952925,-0.017822266,-0.9898071,0.20794678,1.703125,-1.59375,0.5625
1695747952953,-0.12988281,-0.9902954,0.22064209,0.25,-2.8125,-3.78125
1695747952998,-0.14257812,-0.8831177,0.12835693,-0.453125,-1.15625,-8.171875
1695747953044,-0.038330078,-1.1419067,-0.0010375977,-5.671875,-7.09375,-0.921875
1695747953103,0.13671875,-1.3860474,-0.105041504,-2.484375,-11.03125,8.078125
1695747953118,0.0031738281,-1.3394165,0.018493652,-4.171875,-10.390625,8.8125
1695747953163,-0.08325195,-1.3530884,0.08782959,1.0,-11.953125,1.984375
1695747953193,-0.0234375,-1.1314087,0.22772217,8.65625,-12.59375,-1.15625
1695747953239,-0.26953125,-0.82818604,0.14276123,-2.78125,-11.125,-5.796875
1695747953283,-0.078125,-1.116272,0.014099121,-5.4375,-10.78125,-3.890625
1695747953312,-0.026611328,-0.98394775,-0.0022583008,6.796875,-10.96875,-2.359375
1695747953358,-0.09277344,-0.85284424,0.059753418,2.59375,-15.328125,-4.09375
1695747953388,-0.01586914,-1.0276489,0.07757568,-9.0625,-19.0,3.171875
1695747953433,-0.08886719,-0.9505005,0.090270996,1.375,-18.25,2.03125
1695747953478,-0.118896484,-0.9026489,0.074645996,-2.4375,-18.875,1.015625
1695747953507,-0.0063476562,-0.972229,0.11932373,-2.765625,-23.953125,3.5
1695747953553,-0.14233398,-0.90411377,0.1149292,-3.828125,-26.640625,3.09375
1695747953598,-0.16113281,-0.89801025,0.07904053,-3.8125,-23.96875,0.171875
1695747953627,-0.109375,-0.82403564,0.09100342,-2.0625,-25.5625,0.0
1695747953672,-0.09423828,-0.741272,0.059265137,-3.203125,-29.90625,2.640625
1695747953718,-0.12182617,-0.71710205,0.039978027,1.375,-30.5625,2.625
1695747953748,-0.13085938,-0.5886841,0.06854248,8.828125,-29.609375,1.515625
1695747953793,-0.10913086,-0.6694946,0.012634277,-3.171875,-36.90625,-1.15625
1695747953838,-0.020507812,-0.8567505,-0.06842041,-2.5,-45.734375,-1.875
1695747953869,-0.08691406,-1.4224243,0.15814209,0.25,-19.59375,2.0625
1695747953915,0.14916992,-1.6192017,0.12738037,7.703125,-28.875,-1.84375
1695747953960,0.18652344,-1.8101196,0.15594482,-28.015625,-14.078125,-5.8125
1695747953988,-0.12646484,-1.2788696,0.3451538,-5.578125,-25.296875,1.453125
1695747954033,-0.21289062,-1.1016235,0.16937256,-5.8125,-20.625,-5.53125
1695747954062,0.07861328,-0.78741455,0.13543701,3.71875,-19.765625,1.890625
1695747954110,-0.0021972656,-0.9404907,0.25360107,0.140625,-22.21875,6.515625
1695747954153,0.096191406,-0.90753174,0.1696167,-5.375,-27.03125,5.9375
1695747954183,0.03149414,-0.85235596,0.14031982,-7.734375,-30.0,4.984375
1695747954230,-0.068359375,-0.9824829,0.16107178,0.046875,-25.40625,4.59375
1695747954275,-0.051513672,-0.9368286,0.22894287,0.015625,-21.109375,4.78125
1695747954303,-0.09326172,-0.96954346,0.26361084,-1.015625,-19.71875,2.84375
1695747954348,-0.05834961,-0.9573364,0.2296753,-1.203125,-19.34375,1.84375
1695747954393,-0.028808594,-0.9800415,0.27288818,0.65625,-18.25,2.109375
1695747954423,-0.09399414,-0.954895,0.27337646,0.109375,-18.40625,1.8125
1695747954470,-0.06640625,-0.92071533,0.2423706,2.359375,-18.34375,-0.171875
1695747954514,-0.12768555,-0.87872314,0.22747803,3.859375,-15.75,-1.640625
1695747954542,-0.12573242,-0.89312744,0.25213623,4.734375,-12.078125,-4.984375
1695747954588,-0.16723633,-0.8882446,0.2514038,2.828125,-8.6875,-7.015625
1695747954634,-0.16137695,-0.89190674,0.3078003,3.78125,-6.6875,-9.796875
1695747954663,-0.23632812,-0.9402466,0.28363037,-2.578125,-2.375,-11.875
1695747954708,-0.013671875,-1.204895,0.10345459,-7.78125,-9.890625,-8.875
1695747954753,0.064697266,-1.383606,-0.08062744,-7.609375,-18.875,8.8125
1695747954783,0.057128906,-1.2400513,-0.0025024414,17.203125,-17.140625,5.71875
1695747954828,-0.20751953,-0.92266846,0.24017334,23.234375,0.234375,-6.75
1695747954858,0.012451172,-0.80426025,0.009460449,-0.484375,-8.96875,-0.234375
1695747954904,0.028808594,-0.9468384,-0.18951416,3.078125,-16.6875,6.671875
1695747954948,-0.051513672,-0.9717407,-0.08380127,12.5625,-17.84375,2.8125
1695747954978,-0.055908203,-1.0650024,0.0836792,4.328125,-18.109375,2.6875
1695747955027,-0.13916016,-0.95025635,-0.019348145,4.875,-17.046875,-1.421875
1695747955067,-0.14453125,-0.93585205,-0.0791626,6.421875,-12.421875,-3.0625
1695747955097,-0.08496094,-0.97320557,-0.05621338,6.296875,-12.765625,-2.703125
1695747955144,-0.0793457,-0.9417114,-0.031555176,2.1875,-14.890625,2.109375
1695747955191,-0.1550293,-0.95806885,0.01361084,-2.609375,-11.953125,3.453125
1695747955217,-0.14208984,-1.0127563,-0.034973145,0.171875,-10.03125,1.84375
1695747955263,-0.118896484,-0.96295166,0.02142334,4.96875,-7.8125,2.140625
1695747955309,-0.15332031,-0.9368286,0.051696777,-10.328125,-5.953125,-0.34375
1695747955353,-0.21655273,-1.0298462,0.002380371,-9.875,-6.796875,-3.96875
1695747955398,-0.084228516,-0.923645,0.001159668,1.78125,-6.171875,-4.59375
1695747955427,-0.11010742,-0.7817993,0.05633545,-7.46875,-6.28125,-1.78125
1695747955474,-0.20141602,-0.8389282,0.09051514,-14.4375,-3.625,-3.0625
1695747955502,-0.16333008,-0.861145,0.0927124,-10.09375,1.734375,-3.90625
1695747955535,-0.16772461,-0.8045044,0.036071777,-10.734375,2.75,-2.84375
1695747955578,-0.059326172,-0.7608032,0.053894043,-4.171875,-0.640625,0.875
1695747955623,-0.16503906,-0.6956177,0.12982178,-7.09375,1.953125,1.4375
1695747955670,-0.21191406,-0.7144165,0.049743652,-0.28125,2.484375,-0.09375
1695747955697,-0.0793457,-0.7883911,-0.02545166,-4.0625,2.609375,-1.203125
1695747955743,0.029296875,-1.1726685,0.06781006,-2.484375,15.984375,-0.8125
1695747955772,0.35742188,-1.58844,0.015563965,4.28125,-3.34375,16.796875
1695747955818,0.09472656,-1.8242798,0.2333374,0.984375,4.203125,2.9375
1695747955864,-0.2409668,-1.269104,0.11273193,15.265625,-6.828125,-1.125
1695747955894,-0.12207031,-1.1074829,0.07757568,2.421875,2.484375,-7.421875
1695747955938,-0.016601562,-1.0264282,0.15374756,2.34375,1.65625,1.296875
1695747955983,-0.017089844,-1.0679321,0.098083496,-3.328125,1.703125,-0.609375
1695747956012,0.052246094,-0.82769775,0.042907715,-0.625,7.4375,-1.203125
1695747956058,-0.039794922,-0.8147583,0.08905029,-1.3125,3.171875,1.171875
1695747956103,0.0043945312,-0.88897705,0.09588623,-1.796875,1.046875,3.65625
1695747956131,0.04296875,-0.90802,0.097839355,-5.46875,-0.640625,4.46875
1695747956178,-0.08935547,-0.9661255,0.15716553,-3.171875,0.1875,2.453125
1695747956224,-0.09423828,-0.9221802,0.14324951,-0.875,2.375,-1.828125
1695747956253,-0.071777344,-0.87164307,0.17840576,-0.875,4.484375,-3.90625
1695747956300,-0.10083008,-0.94366455,0.184021,-3.84375,4.4375,-3.71875
1695747956327,-0.018310547,-0.835022,0.11810303,0.546875,3.59375,-1.890625
1695747956373,-0.028564453,-0.8118286,0.10443115,1.53125,4.234375,-1.390625
1695747956418,-0.064941406,-0.87091064,0.12713623,3.265625,4.65625,-1.59375
1695747956449,-0.03881836,-0.8936157,0.18865967,0.3125,2.96875,-1.9375
1695747956493,-0.11352539,-0.9204712,0.19110107,-1.15625,2.90625,-2.984375
1695747956539,-0.12475586,-0.8648071,0.17059326,-2.59375,7.796875,-4.1875
1695747956567,-0.055908203,-0.84552,0.17694092,2.171875,7.703125,-3.453125
1695747956613,-0.08691406,-0.96661377,0.16668701,-6.984375,5.0,-0.75
1695747956659,0.017333984,-1.2114868,0.051940918,-10.203125,-0.265625,4.984375
1695747956688,0.22094727,-1.2971802,-0.034973145,1.953125,-4.0,16.359375
1695747956733,-0.140625,-1.390686,0.073913574,-2.90625,2.28125,7.875
1695747956778,0.076171875,-1.3672485,0.006286621,18.46875,-0.828125,5.390625
1695747956808,-0.12084961,-0.9573364,0.2838745,12.078125,5.265625,-4.1875
1695747956854,-0.28344727,-0.9776001,0.094177246,-2.21875,3.25,-5.859375
1695747956899,0.04736328,-1.1001587,-0.036193848,9.671875,7.4375,-0.96875
1695747956943,-0.07080078,-0.88409424,-0.06744385,9.9375,6.5625,-4.71875
1695747956972,0.011230469,-0.9619751,0.013122559,6.703125,1.671875,0.625
1695747957002,-0.030517578,-0.94659424,0.055603027,4.71875,-0.359375,3.171875
1695747957049,-0.10498047,-0.92755127,0.0038452148,2.078125,1.28125,0.140625
1695747957094,-0.045166016,-0.9751587,0.029724121,2.09375,-1.515625,-0.21875
1695747957125,-0.04736328,-1.0164185,0.055114746,-5.625,-3.328125,-0.796875
1695747957199,-0.17895508,-0.9385376,0.093444824,-2.109375,-2.140625,-3.875
1695747957213,-0.16210938,-0.897522,0.066101074,-6.15625,-1.171875,-5.46875
1695747957244,-0.109375,-0.862854,0.066345215,-5.828125,-1.28125,-5.640625
1695747957289,-0.17382812,-0.7827759,0.077819824,-7.15625,0.0,-5.75
1695747957333,-0.12817383,-0.7984009,0.0692749,-10.828125,1.515625,-4.609375
1695747957362,-0.1105957,-0.8237915,0.116882324,-6.96875,1.796875,-3.546875
1695747957408,-0.107177734,-0.7449341,0.10247803,-4.109375,1.5625,-1.59375
1695747957454,-0.10131836,-0.66241455,0.049743652,-0.125,-2.328125,0.765625
1695747957482,-0.16723633,-0.7463989,0.039489746,-0.421875,-2.53125,-1.59375
1695747957528,-0.056884766,-1.1941528,0.09637451,-2.15625,12.265625,-1.125
1695747957573,0.21362305,-1.5691528,0.09637451,-0.421875,2.75,6.5
1695747957602,0.103027344,-1.4424438,-0.023742676,9.265625,-3.171875,3.140625
1695747957648,-0.07348633,-1.3633423,0.27459717,7.140625,2.140625,-0.03125
1695747957693,-0.12646484,-1.2739868,0.23822021,3.59375,-1.421875,4.28125
1695747957722,-0.0769043,-0.9612427,0.047790527,4.953125,-2.984375,-2.65625
1695747957768,-0.14135742,-0.9151001,0.058776855,3.90625,1.3125,-0.9375
1695747957798,0.11987305,-1.083313,0.10296631,-2.796875,2.5625,-0.953125
1695747957843,0.04321289,-0.8274536,0.078063965,-6.828125,-0.484375,1.984375
1695747957888,-0.10644531,-0.87213135,0.105407715,-5.28125,-0.046875,-1.09375
1695747957917,0.022460938,-0.9260864,0.1317749,-1.609375,0.890625,-0.046875
1695747957965,-0.0146484375,-0.89849854,0.152771,-3.34375,-0.265625,0.28125
1695747958008,-0.064697266,-0.91363525,0.17791748,-7.328125,-0.421875,-2.859375
1695747958069,-0.0715332,-0.9221802,0.184021,-5.359375,-0.5625,-5.140625
1695747958083,-0.052246094,-0.8855591,0.21551514,0.125,1.3125,-4.59375
1695747958128,-0.061279297,-0.7564087,0.15716553,3.6875,2.15625,-2.5625
1695747958158,-0.067871094,-0.7251587,0.089538574,1.40625,4.140625,-3.84375
1695747958218,-0.055419922,-0.7937622,0.10101318,5.5,6.296875,-2.921875
1695747958247,-0.057128906,-0.88116455,0.18548584,2.1875,5.109375,-3.34375
1695747958278,-0.09741211,-0.9507446,0.2453003,-4.53125,4.1875,-5.046875
1695747958327,-0.16796875,-0.8977661,0.23602295,0.890625,8.953125,-5.046875
1695747958398,-0.084228516,-1.081604,0.08001709,-8.0625,4.90625,-2.234375
1695747958403,0.19921875,-1.2583618,-0.08062744,0.515625,-4.15625,9.9375
1695747958444,-0.021728516,-1.25177,0.039245605,10.1875,-4.734375,14.953125
1695747958473,-0.12011719,-1.3569946,0.04510498,-7.890625,5.09375,5.484375
1695747958518,0.119140625,-1.3096313,0.042907715,10.078125,-2.609375,3.890625
1695747958563,-0.23632812,-0.98638916,0.19744873,5.046875,-0.1875,-7.953125
1695747958593,-0.14038086,-1.0525513,0.08758545,-0.484375,-0.09375,-2.5625
1695747958638,-0.092041016,-0.98516846,-0.0022583008,5.96875,3.828125,-2.5
1695747958683,-0.049316406,-0.9155884,-0.04864502,10.640625,6.390625,-4.34375
1695747958712,-0.034179688,-0.9351196,0.04510498,5.484375,2.453125,0.984375
1695747958758,-0.072021484,-0.9512329,0.04534912,2.828125,1.515625,1.234375
1695747958803,-0.0871582,-0.8843384,0.026550293,2.640625,2.078125,1.828125
1695747958832,-0.060546875,-1.0037231,0.038269043,-0.859375,0.390625,1.5
1695747958878,-0.11450195,-0.9859009,0.07928467,0.609375,0.890625,-0.203125
1695747958923,-0.17163086,-0.89141846,0.094177246,-5.5,3.25,-3.09375
1695747958952,-0.2019043,-0.9859009,0.101501465,-3.8125,4.515625,-5.0
1695747958998,-0.15649414,-0.8953247,0.044128418,-9.71875,8.03125,-6.171875
1695747959044,-0.07763672,-0.93829346,0.054626465,-6.453125,6.453125,-2.5
1695747959073,-0.045654297,-0.87457275,0.105407715,-1.25,5.828125,-1.125
1695747959118,-0.068359375,-0.79815674,0.113464355,-4.09375,5.125,2.546875
1695747959163,-0.060546875,-0.8064575,0.085632324,1.03125,-0.25,4.328125
1695747959193,-0.12475586,-0.7217407,0.13372803,2.0625,0.140625,2.65625
1695747959238,-0.14453125,-0.74346924,0.097351074,2.09375,-4.78125,-1.5625
1695747959268,-0.052978516,-0.67022705,-0.023010254,8.859375,-8.53125,-2.046875
1695747959314,-0.07006836,-1.0066528,0.06756592,-3.359375,-1.4375,-4.328125
1695747959360,-0.020507812,-1.4094849,0.058288574,4.265625,-3.046875,-9.3125
1695747959434,0.22509766,-1.303772,-0.06329346,12.578125,-11.9375,4.359375
1695747959438,-0.06665039,-1.4917603,0.12615967,6.859375,-5.8125,-1.875
1695747959509,-0.25585938,-1.3084106,0.2243042,13.625,-5.578125,-0.953125
1695747959514,-0.19799805,-0.95318604,0.009216309,12.75,-0.578125,-6.453125
1695747959554,-0.05444336,-0.8440552,-0.06329346,6.78125,-5.234375,-0.328125
1695747959599,0.07055664,-1.2329712,0.081970215,-3.328125,1.765625,1.609375
1695747959627,0.040771484,-1.0444946,0.039978027,2.546875,-2.59375,3.875
1695747959674,-0.21533203,-0.8110962,0.0040893555,-1.84375,0.3125,-0.078125
1695747959719,-0.14941406,-1.0105591,0.07366943,-2.96875,8.40625,-2.09375
1695747959748,0.022705078,-0.89434814,0.07537842,-3.84375,7.75,-0.46875
1695747959793,-0.029785156,-0.7991333,0.08441162,-7.59375,3.59375,1.453125
1695747959869,-0.099365234,-0.9248657,0.0927124,-5.0625,5.671875,0.953125
1695747959874,0.020507812,-0.8899536,0.058776855,-0.765625,6.90625,-1.34375
1695747959913,-0.045654297,-0.83013916,0.070495605,0.609375,5.234375,-1.234375
1695747959944,-0.07373047,-0.84625244,0.10369873,-1.96875,5.21875,0.15625
1695747959988,-0.119140625,-0.8413696,0.13250732,-3.8125,7.828125,-4.296875
1695747960033,-0.10620117,-0.798645,0.14422607,-1.015625,10.515625,-6.171875
1695747960062,-0.14331055,-0.85113525,0.11444092,-8.71875,9.0,-6.09375
1695747960108,-0.0075683594,-1.144104,-0.08282471,-11.28125,2.359375,0.5
1695747960153,0.24853516,-1.3672485,-0.22564697,0.140625,-3.421875,12.984375
1695747960182,0.007080078,-1.2261353,0.023620605,1.796875,-3.578125,10.53125
1695747960228,0.005859375,-1.3425903,0.018493652,-1.09375,-6.9375,7.375
1695747960273,-0.2133789,-1.1245728,0.21966553,1.90625,1.125,-2.1875
1695747960302,-0.24560547,-0.95269775,0.082458496,-8.25,2.9375,-12.09375
1695747960350,0.0769043,-1.1589966,-0.06866455,0.78125,-0.328125,-1.234375
1695747960394,-0.14819336,-0.9546509,0.03265381,3.765625,2.8125,-5.90625
1695747960422,-0.11694336,-0.9685669,0.05316162,-0.796875,5.453125,-3.03125
1695747960468,-0.0029296875,-1.0213013,0.043395996,-4.109375,-0.046875,1.078125
1695747960513,-0.103759766,-0.9483032,0.0368042,0.21875,0.421875,1.640625
1695747960543,-0.084472656,-0.9595337,0.06097412,1.234375,0.359375,1.03125
1695747960589,-0.068603516,-0.95269775,0.094177246,-1.5625,-0.953125,2.34375
1695747960633,-0.12841797,-0.9463501,0.07318115,-5.421875,0.0625,0.140625
1695747960662,-0.14282227,-0.95513916,0.06854248,-2.890625,2.1875,-2.5625
1695747960708,-0.07739258,-0.95025635,0.09979248,-4.15625,1.90625,-3.59375
1695747960737,-0.1274414,-0.9800415,0.12371826,-8.078125,1.21875,-3.296875
1695747960784,-0.13012695,-0.9307251,0.10858154,-7.046875,2.5625,-4.34375
1695747960828,-0.125,-0.90704346,0.10443115,-7.09375,3.328125,-2.140625
1695747960857,-0.13476562,-0.89263916,0.13226318,-7.375,2.828125,-1.84375
1695747960903,-0.17114258,-0.8377075,0.17059326,-2.984375,5.796875,-2.125
1695747960948,-0.15893555,-0.8399048,0.14202881,-8.671875,7.484375,0.265625
1695747960977,-0.115722656,-0.8740845,0.15374756,-1.703125,3.6875,-1.484375
1695747961022,-0.123046875,-0.7139282,0.19403076,2.984375,5.59375,-2.34375
1695747961068,-0.15673828,-0.7017212,0.15716553,-2.4375,5.828125,-0.34375
1695747961097,-0.12109375,-0.74176025,0.031188965,4.28125,3.984375,-1.3125
1695747961143,0.057861328,-0.95880127,0.0680542,-0.0625,9.484375,1.53125
1695747961188,0.09716797,-1.3777466,0.18817139,-4.453125,3.828125,1.09375
1695747961217,-0.092041016,-1.2688599,0.06317139,9.1875,1.0,-0.109375
1695747961264,0.013916016,-1.5464478,0.31072998,8.53125,7.515625,-7.828125
1695747961339,-0.0126953125,-1.437561,0.28460693,-0.671875,-2.703125,-0.265625
1695747961344,-0.16577148,-1.0610962,0.15814209,5.90625,-7.3125,-2.203125
1695747961398,-0.2956543,-0.8933716,0.13739014,15.5625,-0.359375,-5.84375
1695747961413,-0.048583984,-0.9336548,0.14031982,10.046875,7.109375,-2.78125
1695747961459,0.06567383,-0.8345337,0.057800293,3.046875,3.703125,1.21875
1695747961502,-0.044677734,-0.8230591,0.0692749,-1.8125,1.984375,3.234375
1695747961532,0.0034179688,-1.0142212,0.1161499,-6.25,-1.9375,2.84375
1695747961578,-0.021728516,-1.0269165,0.17132568,-5.921875,-4.84375,0.984375
1695747961623,-0.11743164,-0.9714966,0.18426514,-4.9375,-3.359375,-0.625
1695747961653,-0.09790039,-0.92926025,0.19378662,-3.546875,-1.984375,-0.90625
1695747961698,-0.052246094,-0.927063,0.16522217,-1.15625,-3.671875,1.1875
1695747961743,-0.08520508,-0.8948364,0.17034912,-0.609375,-2.3125,-0.765625
1695747961774,-0.07104492,-0.8335571,0.1449585,3.859375,0.265625,0.734375
1695747961819,-0.026855469,-0.772522,0.13104248,4.8125,0.53125,1.453125
1695747961868,-0.05883789,-0.788147,0.13543701,5.6875,-0.578125,0.109375
1695747961892,-0.07397461,-0.76519775,0.13885498,4.109375,1.96875,-0.171875
1695747961939,-0.115478516,-0.769104,0.18304443,1.8125,2.1875,-2.0625
1695747961984,-0.12866211,-0.80548096,0.19354248,0.296875,-0.8125,-5.0625
1695747962012,-0.17480469,-0.8015747,0.16400146,1.71875,2.765625,-4.953125
1695747962058,-0.052001953,-1.1028442,-0.013000488,-2.953125,-1.171875,1.78125
1695747962102,0.22583008,-1.4126587,-0.14483643,-9.15625,-9.296875,14.3125
1695747962149,0.118652344,-1.6724243,-0.08355713,2.59375,-8.3125,17.234375
1695747962178,-0.18432617,-1.7195435,0.11981201,10.609375,-12.3125,0.578125
1695747962208,-0.17456055,-1.0247192,0.3414917,13.796875,-0.78125,-12.578125
1695747962269,-0.3466797,-0.6382446,0.23944092,-10.859375,3.65625,-7.625
1695747962298,-0.10498047,-1.0183716,-0.043273926,-1.796875,2.171875,0.75
1695747962329,0.056884766,-0.95147705,-0.1428833,7.4375,0.90625,-2.578125
1695747962375,0.029541016,-0.9534302,0.053894043,6.9375,-3.4375,1.8125
1695747962418,-0.0847168,-0.98638916,0.19281006,-7.125,-6.421875,4.515625
1695747962447,-0.15649414,-1.0073853,0.12835693,-9.609375,-4.890625,2.609375
1695747962493,-0.16015625,-0.9636841,0.062683105,-4.078125,-0.375,-0.515625
1695747962539,-0.16308594,-0.9216919,0.11956787,-6.234375,0.109375,-3.46875
1695747962568,-0.19018555,-0.92022705,0.15423584,-7.78125,2.046875,-3.359375
1695747962613,-0.119628906,-0.9026489,0.12982178,-10.234375,3.171875,-2.546875
1695747962658,-0.08984375,-0.9234009,0.14471436,-9.984375,2.234375,-1.3125
1695747962687,-0.107666016,-0.798645,0.15496826,0.1875,2.359375,-0.53125
1695747962733,-0.14941406,-0.7041626,0.12615967,-3.5,2.96875,0.890625
1695747962778,-0.075927734,-0.7073364,0.12200928,4.375,1.109375,3.609375
1695747962807,-0.12011719,-0.6265259,0.14666748,3.0625,3.984375,3.140625
1695747962853,-0.1574707,-0.67926025,0.16033936,0.75,3.453125,-1.953125
1695747962883,-0.078125,-0.8994751,0.06317139,-5.71875,7.796875,-0.796875
1695747962928,-0.041748047,-1.428772,0.10345459,-3.09375,15.65625,-4.09375
1695747962973,0.29614258,-1.616272,0.11151123,3.40625,4.140625,2.03125
1695747963003,0.041992188,-1.6846313,0.31903076,-1.625,3.421875,-4.609375
1695747963063,-0.32714844,-1.3516235,0.25604248,3.796875,-2.890625,-4.21875
1695747963092,-0.13330078,-1.1038208,0.13616943,14.78125,8.25,-11.828125
1695747963123,-0.072509766,-0.92437744,0.18719482,8.953125,9.90625,-3.375
1695747963168,0.041259766,-0.94122314,0.10321045,-0.6875,9.09375,0.546875
1695747963214,0.01928711,-0.7761841,0.06585693,4.28125,7.4375,-0.796875
1695747963242,0.004638672,-0.8352661,0.09588623,0.265625,7.359375,2.0625
1695747963288,0.029296875,-0.91851807,0.112976074,-3.828125,3.078125,5.0
1695747963348,-0.036865234,-0.99542236,0.16619873,-3.421875,-1.484375,3.703125
1695747963364,-0.072021484,-1.0357056,0.15106201,2.6875,0.515625,-0.84375
