# Sensor type: Respeck
# Activity type: Ascending stairs
# Activity subtype: Normal
# Subject id: s2063346
# Notes: 1.8
timestamp,accel_x,accel_y,accel_z,gyro_x,gyro_y,gyro_z
1695747879095,-0.092285156,-0.987854,0.15765381,-2.078125,0.625,1.484375
1695747879157,-0.13012695,-1.0281372,0.1630249,-1.5625,3.296875,-0.1875
1695747879181,-0.10961914,-0.99176025,0.11248779,4.484375,6.59375,0.546875
1695747879213,-0.115234375,-0.87677,0.11102295,9.0625,11.546875,2.640625
1695747879272,-0.13696289,-0.866272,0.029968262,12.40625,16.640625,5.234375
1695747879302,-0.060058594,-0.98638916,-0.008117676,8.078125,14.4375,7.0625
1695747879351,-0.118652344,-1.1101685,0.098083496,1.515625,8.6875,4.484375
1695747879393,-0.21875,-1.1255493,0.11273193,4.984375,7.8125,0.671875
1695747879452,-0.07446289,-0.9990845,0.09466553,10.359375,5.203125,4.78125
1695747879455,-0.0703125,-0.9282837,0.081970215,8.015625,4.28125,7.109375
1695747879512,-0.11303711,-0.95098877,0.05706787,8.09375,3.03125,5.953125
1695747879542,-0.095703125,-0.9907837,0.06390381,10.8125,2.953125,5.046875
1695747879574,-0.1003418,-0.956604,0.0368042,9.46875,2.890625,5.0625
1695747879632,-0.1015625,-0.9624634,0.04486084,7.890625,3.265625,4.015625
1695747879662,-0.14672852,-0.9783325,0.04144287,3.921875,4.390625,3.28125
1695747879693,-0.095214844,-1.0274048,0.04852295,1.234375,2.390625,2.59375
1695747879754,-0.19897461,-1.0115356,0.028503418,0.84375,4.125,3.125
1695747879783,-0.15209961,-1.0562134,0.020935059,0.828125,4.25,3.59375
1695747879812,-0.11791992,-1.060852,-0.02130127,0.046875,4.84375,5.640625
1695747879873,-0.06542969,-1.0838013,-0.09967041,0.9375,7.0625,8.375
1695747879903,0.2277832,-1.2529907,-0.046691895,-4.046875,-2.703125,14.1875
1695747879933,0.0126953125,-1.2798462,0.04876709,-8.625,-2.140625,10.546875
1695747879993,-0.0078125,-1.1907349,-0.13287354,2.734375,-6.25,7.46875
1695747880022,0.62109375,-1.196106,-0.08477783,-1.359375,-5.71875,11.84375
1695747880053,0.22143555,-0.9553833,0.11907959,-5.5,-16.5625,12.1875
1695747880143,0.04321289,-0.94903564,0.02557373,-7.25,-12.90625,7.578125
1695747880147,0.3166504,-0.86724854,0.010192871,-7.40625,-7.890625,3.90625
1695747880172,0.06958008,-0.8892212,0.10418701,-4.578125,-8.78125,-1.140625
1695747880233,0.122802734,-0.8591919,0.097351074,-0.71875,-9.0625,-3.28125
1695747880263,0.17919922,-0.82525635,0.04925537,-0.75,-10.84375,-1.40625
1695747880293,0.114746094,-0.84088135,0.06463623,-2.421875,-13.25,1.0
1695747880338,0.061279297,-0.8545532,0.105407715,1.71875,-8.734375,-2.203125
1695747880413,0.064208984,-0.8362427,0.07513428,1.640625,-6.328125,-4.03125
1695747880417,0.10205078,-0.8418579,0.09515381,1.359375,-4.546875,-1.59375
1695747880443,0.079589844,-0.87994385,0.12908936,-2.140625,-5.5625,0.5625
1695747880503,0.08227539,-0.9307251,0.15887451,-0.84375,-5.515625,3.046875
1695747880531,0.08618164,-0.98150635,0.15301514,-2.390625,-5.796875,3.75
1695747880562,0.07397461,-1.048645,0.18695068,-1.171875,-0.625,2.3125
1695747880623,0.040527344,-1.0982056,0.19378662,3.109375,2.28125,1.3125
1695747880652,0.080566406,-1.1270142,0.07122803,11.796875,2.640625,0.171875
1695747880683,0.73535156,-1.2236938,-0.08087158,22.0,-14.234375,31.171875
1695747880743,-0.17163086,-1.4273071,0.19720459,1.796875,9.1875,3.84375
1695747880772,0.111816406,-1.0615845,-0.19024658,26.34375,15.921875,-10.3125
1695747880803,0.5307617,-0.7161255,-0.121398926,16.59375,9.015625,4.65625
1695747880864,0.020507812,-0.90216064,-0.1885376,-2.0625,9.96875,-9.75
1695747880892,0.16333008,-0.9143677,-0.21783447,2.46875,13.890625,-10.484375
1695747880923,0.087402344,-0.9378052,-0.101135254,-4.1875,6.890625,-16.484375
1695747880983,-0.0031738281,-1.0027466,-0.09893799,-2.609375,14.90625,-19.046875
1695747881012,0.118896484,-0.9468384,-0.085510254,-0.875,17.9375,-14.21875
1695747881042,-0.011474609,-0.8579712,-0.044006348,-1.296875,17.6875,-10.515625
1695747881104,0.012207031,-0.76934814,-0.090148926,1.515625,18.359375,-8.578125
1695747881135,0.083740234,-0.72662354,-0.112854004,5.375,15.484375,-3.25
1695747881166,0.024414062,-0.79351807,-0.066223145,1.09375,12.9375,0.640625
1695747881222,-0.0048828125,-0.86920166,-0.054748535,0.078125,8.65625,3.28125
1695747881253,-0.025146484,-0.9507446,-0.035217285,3.015625,6.296875,5.046875
1695747881285,-0.11254883,-1.0408325,-0.04498291,-0.8125,6.234375,4.953125
1695747881342,-0.1027832,-1.0974731,-0.05621338,-2.453125,9.734375,2.96875
1695747881372,-0.11035156,-1.1663208,-0.036193848,-2.734375,11.375,1.671875
1695747881433,-0.12207031,-1.1316528,-0.113342285,-5.796875,10.8125,2.765625
1695747881463,-0.02709961,-1.2039185,-0.14801025,-7.296875,17.15625,5.078125
1695747881494,0.24169922,-1.4338989,-0.14093018,-13.9375,13.84375,4.765625
1695747881521,0.32348633,-1.2119751,-0.08331299,-8.71875,-0.046875,3.796875
1695747881583,0.21264648,-0.90338135,-0.07891846,1.40625,2.1875,5.359375
1695747881612,0.2692871,-0.9656372,0.029968262,-5.609375,4.25,2.125
1695747881643,0.045166016,-0.95977783,0.013122559,-7.546875,1.671875,-4.703125
1695747881687,0.05517578,-0.89678955,0.032165527,-10.3125,10.796875,-8.984375
1695747881722,0.20019531,-0.9546509,0.07977295,-13.75,8.0625,-10.09375
1695747881764,0.029296875,-0.9182739,0.05267334,-6.71875,4.171875,-7.203125
1695747881822,0.05029297,-0.82037354,0.038757324,-2.59375,6.625,-5.109375
1695747881836,0.0793457,-0.75860596,0.042663574,0.0625,7.4375,-2.15625
1695747881882,-0.01586914,-0.7271118,0.09906006,-3.59375,9.453125,-3.140625
1695747881911,-0.020263672,-0.8135376,0.097351074,-1.984375,10.015625,-4.09375
1695747881958,0.036865234,-0.8064575,0.089538574,1.640625,9.671875,-2.4375
1695747882002,0.0063476562,-0.8945923,0.101501465,-1.328125,8.40625,0.203125
1695747882032,0.07373047,-1.00177,0.15911865,-2.109375,5.6875,2.09375
1695747882077,0.03955078,-1.0745239,0.24090576,-9.015625,5.328125,3.875
1695747882123,-0.08959961,-1.1057739,0.25164795,-4.796875,6.984375,3.28125
1695747882152,-0.10180664,-1.1055298,0.19891357,1.234375,10.8125,3.265625
1695747882198,-0.056640625,-1.1611938,0.1696167,5.453125,17.796875,0.875
1695747882243,0.43725586,-1.2319946,-0.04449463,11.859375,2.6875,16.4375
1695747882272,-0.09863281,-1.2678833,0.168396,1.4375,7.578125,11.5
1695747882320,-0.15234375,-1.0845337,-0.19073486,30.15625,24.890625,-10.78125
1695747882363,0.45483398,-0.7366333,-0.2300415,17.8125,20.90625,6.984375
1695747882392,0.024902344,-0.88726807,-0.20953369,0.03125,13.5,0.921875
1695747882437,-0.032714844,-0.99664307,-0.17486572,2.796875,19.5,-4.40625
1695747882483,0.053222656,-0.8875122,-0.1116333,-2.953125,19.046875,-8.765625
1695747882514,-0.056396484,-0.9690552,-0.019592285,-9.28125,19.140625,-11.59375
1695747882558,-0.055908203,-0.9468384,-0.06329346,-8.625,22.90625,-8.84375
1695747882587,0.009277344,-0.87091064,-0.077697754,-4.0625,21.390625,-6.015625
1695747882633,-0.019042969,-0.83184814,-0.028869629,-2.296875,21.9375,-3.578125
1695747882709,-0.04638672,-0.79644775,-0.028625488,-2.921875,21.015625,0.421875
1695747882714,-0.10986328,-0.8389282,-5.493164E-4,-4.484375,22.265625,-0.078125
1695747882753,-0.13647461,-0.82647705,-0.008850098,-4.640625,22.59375,0.46875
1695747882798,-0.09375,-0.8899536,0.02508545,-9.0625,19.890625,0.890625
1695747882827,-0.14404297,-0.92803955,0.043395996,-7.65625,19.046875,2.125
1695747882873,-0.11279297,-0.91973877,0.031677246,-6.875,16.90625,4.0
1695747882918,-0.033447266,-0.9649048,0.039245605,-9.75,13.9375,7.578125
1695747882947,-0.10961914,-1.1455688,0.07318115,-13.515625,7.921875,10.046875
1695747882992,-0.12402344,-1.072815,0.2062378,-12.65625,5.140625,4.125
1695747883038,-0.16967773,-1.1138306,0.1473999,-15.765625,3.75,3.796875
1695747883067,-0.0024414062,-1.2774048,-0.054992676,-14.796875,10.015625,5.53125
1695747883114,0.21411133,-1.2808228,0.09442139,-21.03125,25.484375,-3.484375
1695747883157,0.072021484,-1.0745239,-0.07965088,-0.921875,21.296875,-12.0
1695747883187,0.18725586,-0.66192627,-0.06939697,9.46875,29.09375,-3.390625
1695747883233,0.19946289,-0.7036743,0.097351074,-5.875,24.46875,1.953125
1695747883278,0.020751953,-1.1328735,0.08123779,-15.53125,24.765625,-9.90625
1695747883307,0.20092773,-1.0493774,-0.023986816,-3.984375,30.03125,-8.375
1695747883353,0.23168945,-0.9307251,0.11224365,2.046875,28.5,-7.265625
1695747883383,0.018798828,-0.94854736,0.18011475,-0.109375,26.4375,-6.78125
1695747883428,0.010498047,-0.9612427,0.13861084,-2.609375,25.53125,-7.46875
1695747883472,0.07470703,-0.9585571,0.11029053,0.921875,27.078125,-6.265625
1695747883502,0.024414062,-0.909729,0.14178467,1.046875,25.703125,-5.875
1695747883548,-0.02734375,-0.93878174,0.16741943,-0.25,23.90625,-2.203125
1695747883592,-0.012939453,-0.9282837,0.15350342,4.078125,20.734375,-0.265625
1695747883622,-0.0014648438,-0.93756104,0.13397217,1.171875,21.984375,0.234375
1695747883668,-0.011474609,-1.045227,0.20770264,2.4375,21.65625,1.4375
1695747883713,-0.04345703,-1.0032349,0.2140503,3.28125,21.0,0.796875
1695747883758,-0.088134766,-1.0108032,0.23773193,-0.578125,22.125,-1.140625
1695747883787,-0.13647461,-1.1653442,0.17376709,3.96875,24.359375,-4.203125
1695747883832,0.24389648,-1.253479,0.06854248,11.796875,15.125,4.890625
1695747883862,0.23925781,-1.3723755,0.09832764,12.453125,5.453125,14.0625
1695747883908,-0.19335938,-1.190979,0.015319824,18.890625,22.328125,-7.34375
1695747883984,0.26538086,-0.84039307,-0.26202393,23.0,24.640625,-1.1875
1695747883988,0.36279297,-0.83966064,-0.25274658,10.3125,15.171875,4.078125
1695747884027,0.0056152344,-1.0342407,-0.18780518,7.90625,17.96875,-3.25
1695747884057,0.13061523,-0.9483032,-0.1795044,9.0625,14.84375,-3.15625
1695747884103,0.09667969,-0.89801025,-0.062072754,3.921875,10.734375,-5.203125
1695747884148,0.024658203,-0.9417114,-0.101867676,-0.9375,10.75,-3.15625
1695747884177,0.07397461,-0.8533325,-0.12628174,5.78125,9.046875,-2.90625
1695747884223,0.049804688,-0.8491821,-0.10357666,6.46875,9.625,-1.359375
1695747884268,0.03466797,-0.8413696,-0.097229004,-0.25,10.140625,-1.5
1695747884297,0.0012207031,-0.8555298,-0.065979004,2.546875,7.34375,-0.71875
1695747884342,0.00390625,-0.8567505,-0.082092285,2.171875,4.546875,-0.125
1695747884388,-0.025634766,-0.88116455,-0.10772705,2.703125,3.828125,0.640625
1695747884418,-0.022216797,-0.94854736,-0.07965088,1.9375,1.328125,1.6875
1695747884478,-0.029785156,-1.0435181,-0.05206299,-0.78125,-0.9375,1.265625
1695747884509,-0.099853516,-1.0818481,-0.034240723,-5.953125,3.15625,0.171875
1695747884537,-0.09106445,-1.0911255,-0.04107666,-9.40625,2.34375,-1.140625
1695747884583,-0.03857422,-1.1397095,-0.1729126,-10.953125,-0.703125,3.921875
1695747884628,0.25683594,-1.2908325,-0.18756104,-17.546875,-3.0,7.390625
1695747884658,0.37719727,-1.4512329,0.0602417,-19.703125,-5.25,1.1875
1695747884703,0.030517578,-0.90802,-0.05621338,-3.171875,-12.640625,4.59375
1695747884747,0.30249023,-0.8230591,-0.054748535,-3.328125,-4.890625,5.40625
1695747884777,0.16235352,-1.0369263,0.051208496,-9.109375,-5.203125,0.90625
1695747884824,-0.015380859,-0.9055786,0.050720215,-1.96875,-2.015625,-5.734375
1695747884853,0.13110352,-0.9368286,0.05999756,-2.96875,1.828125,-7.6875
1695747884898,0.107421875,-0.9312134,0.04486084,-7.671875,-0.453125,-5.8125
1695747884943,0.032714844,-0.91534424,0.089782715,-4.75,1.296875,-3.796875
1695747884972,0.045166016,-0.83721924,0.08001709,-0.359375,5.09375,-2.0625
1695747885017,0.022216797,-0.77593994,0.0692749,2.328125,5.28125,-0.734375
1695747885063,0.057617188,-0.8152466,0.08685303,2.046875,4.453125,1.703125
1695747885092,0.040283203,-0.8171997,0.09124756,1.0,4.25,4.65625
1695747885140,0.064697266,-0.897522,0.11004639,-0.75,0.859375,5.21875
1695747885183,0.06640625,-0.98687744,0.16400146,-0.703125,0.734375,5.28125
1695747885212,0.12402344,-1.0254517,0.15960693,-0.546875,-1.015625,8.21875
1695747885258,0.07006836,-1.0549927,0.21624756,-0.875,-1.703125,5.25
1695747885304,-0.017578125,-1.0510864,0.18841553,1.640625,0.6875,1.953125
1695747885333,0.09838867,-1.0530396,0.086120605,4.9375,2.84375,-0.125
1695747885378,0.26708984,-1.1453247,0.06878662,3.015625,-4.0,6.453125
1695747885454,-0.030761719,-1.310852,0.09051514,5.046875,6.140625,0.078125
1695747885458,0.15893555,-1.1746216,-0.02520752,16.4375,14.1875,-6.75
1695747885499,0.35375977,-1.0181274,-0.043273926,7.765625,8.1875,1.90625
1695747885528,0.038085938,-0.90216064,-0.16021729,9.765625,7.265625,-1.828125
1695747885573,0.1352539,-0.78692627,-0.18267822,12.359375,12.140625,-3.1875
1695747885618,0.1550293,-0.86676025,-0.101135254,3.46875,7.0625,-5.5625
1695747885647,-0.001953125,-0.91241455,-0.055480957,-2.75,2.71875,-9.078125
1695747885693,0.033691406,-0.9483032,-0.02935791,-9.90625,3.796875,-8.359375
1695747885739,0.05444336,-0.987854,-0.008117676,-8.40625,3.75,-9.3125
1695747885768,0.00390625,-0.9221802,0.007019043,-4.34375,8.859375,-6.90625
1695747885812,0.032958984,-0.8833618,-0.0049438477,-2.1875,9.015625,-6.859375
1695747885858,0.0073242188,-0.8513794,0.031433105,3.21875,6.921875,-3.65625
1695747885887,-0.024658203,-0.8423462,0.031921387,2.765625,5.296875,-1.0625
1695747885933,-0.072753906,-0.82696533,0.022644043,-2.59375,4.65625,0.4375
1695747885978,-0.0703125,-0.9138794,0.018981934,-2.4375,5.546875,0.390625
1695747886008,-0.07519531,-0.9795532,0.007019043,-2.265625,7.59375,0.296875
1695747886053,0.0012207031,-1.1443481,-0.0015258789,-4.390625,4.8125,1.3125
1695747886098,-0.15063477,-1.1262817,0.06561279,1.40625,10.3125,-1.40625
1695747886127,-0.13256836,-1.0088501,0.070251465,-0.1875,9.984375,-1.53125
1695747886173,0.036621094,-1.1135864,-0.05718994,-6.359375,9.3125,6.203125
1695747886218,0.21533203,-1.2454224,-0.054260254,-8.46875,3.390625,12.9375
1695747886263,0.16113281,-1.4089966,0.054870605,-15.1875,-1.375,2.296875
1695747886292,0.055664062,-1.1231079,-0.022033691,1.96875,-5.359375,3.9375
1695747886323,0.47460938,-1.0322876,-0.02178955,4.78125,-2.359375,4.453125
1695747886368,0.2211914,-0.94659424,0.117126465,-4.015625,-11.15625,4.234375
1695747886413,0.01977539,-1.0210571,0.0524292,-4.953125,-8.78125,-1.140625
1695747886489,0.21899414,-0.8855591,0.059509277,1.21875,0.28125,-2.34375
1695747886495,0.037109375,-0.8916626,0.10858154,-1.296875,-3.3125,-7.203125
1695747886548,0.080078125,-0.8460083,0.07952881,-4.0,-3.171875,-4.859375
1695747886565,0.07421875,-0.7776489,0.061462402,-1.125,-2.109375,-3.875
1695747886608,0.107421875,-0.7271118,0.051696777,0.375,-2.40625,0.25
1695747886653,0.068603516,-0.75909424,0.097351074,1.9375,-4.609375,0.859375
1695747886684,0.040283203,-0.819397,0.113464355,-0.546875,-4.09375,1.796875
1695747886728,0.07006836,-0.87091064,0.10784912,2.1875,-2.859375,2.3125
1695747886773,0.11987305,-0.9421997,0.10467529,0.71875,-4.609375,5.734375
1695747886802,0.10522461,-1.0484009,0.19036865,-0.265625,-5.765625,6.984375
1695747886848,0.080566406,-1.0510864,0.20452881,-5.140625,-6.6875,5.328125
1695747886924,0.0034179688,-1.0217896,0.24481201,0.140625,-4.3125,0.84375
1695747886930,-0.03564453,-0.97247314,0.15545654,8.609375,2.28125,-1.75
1695747886968,0.30444336,-1.0598755,-0.039123535,10.421875,-5.421875,5.703125
1695747886998,0.24633789,-1.3416138,0.20379639,-3.40625,-2.453125,18.03125
1695747887060,-0.21459961,-1.4119263,0.01727295,20.4375,7.671875,-9.265625
1695747887089,0.42114258,-0.9846802,-0.022277832,23.71875,12.40625,-2.75
1695747887119,0.07104492,-0.9920044,-0.058410645,10.140625,8.890625,-2.5
1695747887165,0.03100586,-0.8682251,-0.18878174,16.171875,17.0625,-5.921875
1695747887210,0.3095703,-0.78619385,-0.16168213,5.59375,12.296875,-2.46875
1695747887239,0.033203125,-0.9746704,-0.07525635,-4.234375,8.5625,-7.28125
1695747887283,0.03173828,-0.98565674,-0.08770752,1.03125,10.53125,-10.9375
1695747887328,0.12792969,-0.90509033,-0.022766113,2.078125,8.5,-9.21875
1695747887358,-0.0146484375,-0.90875244,-0.021057129,-0.609375,7.640625,-7.890625
1695747887403,-0.03149414,-0.8296509,-0.0635376,1.921875,10.578125,-9.1875
1695747887448,0.0390625,-0.79937744,-0.10479736,4.0,9.578125,-6.015625
1695747887477,0.06542969,-0.8118286,-0.057434082,4.5,5.34375,-0.703125
1695747887523,-0.008544922,-0.85723877,-0.049621582,0.625,3.734375,2.609375
1695747887568,-0.049316406,-0.9170532,-0.05279541,1.421875,3.375,3.1875
1695747887597,-0.036132812,-1.0288696,-0.070373535,2.5625,0.625,1.609375
1695747887643,-0.038085938,-1.0283813,-0.039367676,3.640625,4.125,1.265625
1695747887688,-0.07006836,-1.0811157,-0.019592285,-1.21875,2.90625,0.453125
1695747887718,-0.05517578,-1.1323853,-0.0056762695,-6.46875,2.109375,1.59375
1695747887764,-0.016113281,-1.1504517,-0.16998291,-6.875,-1.0,4.859375
1695747887823,0.09106445,-1.2088013,-0.19366455,-9.140625,8.0625,7.046875
1695747887838,0.46118164,-1.3948364,-0.11065674,-13.703125,-13.0625,3.765625
1695747887883,0.17773438,-1.0759888,-0.019348145,-9.046875,-14.375,7.984375
1695747887929,0.11206055,-0.8250122,-0.06329346,-0.015625,-10.921875,4.5
1695747887958,0.24438477,-1.0432739,0.008972168,-4.90625,0.8125,-0.25
1695747888018,0.010253906,-0.9343872,-0.051574707,-3.765625,0.265625,-6.46875
1695747888033,0.17260742,-0.87384033,0.0018920898,-5.109375,1.28125,-5.3125
1695747888080,0.13574219,-0.91778564,0.051208496,-9.421875,-2.03125,-3.859375
1695747888127,0.04638672,-0.8755493,0.058532715,-6.765625,-2.046875,-3.65625
1695747888153,0.114990234,-0.79693604,0.051696777,-2.28125,-0.875,-1.65625
1695747888198,0.1015625,-0.75323486,0.043640137,-2.65625,-3.140625,-0.484375
1695747888243,0.051757812,-0.8357544,0.09661865,-1.90625,-4.109375,0.15625
1695747888273,0.068359375,-0.86431885,0.085876465,-2.609375,-5.296875,2.5
1695747888318,0.075683594,-0.909729,0.10662842,-3.921875,-5.90625,2.9375
1695747888395,0.045654297,-0.9612427,0.13250732,-1.046875,-6.625,3.765625
1695747888399,0.08886719,-0.9951782,0.15594482,0.703125,-5.796875,4.328125
1695747888438,0.07421875,-0.975647,0.15838623,-0.71875,-4.625,5.5625
1695747888469,0.03491211,-1.0454712,0.17523193,-3.6875,-3.75,2.484375
1695747888513,-0.009277344,-1.0813599,0.17645264,2.359375,0.515625,0.34375
1695747888558,0.22338867,-1.0518188,-0.0025024414,7.15625,-4.734375,2.953125
1695747888588,0.3720703,-1.2839966,0.086120605,7.0,-7.125,20.109375
1695747888634,-0.17749023,-1.3699341,0.070739746,9.75,7.25,-3.375
1695747888678,0.36889648,-0.9746704,-0.07940674,24.5625,7.890625,-0.015625
1695747888707,0.1459961,-0.92681885,-0.03741455,13.140625,6.140625,-0.375
1695747888753,0.00390625,-0.89190674,-0.17510986,13.71875,14.4375,-5.6875
1695747888799,0.29370117,-0.8101196,-0.18878174,9.171875,12.03125,-3.921875
1695747888828,0.06347656,-0.94537354,-0.10089111,0.3125,7.9375,-6.859375
1695747888872,0.045410156,-0.9939575,-0.11065674,-2.671875,7.8125,-9.46875
1695747888917,0.110839844,-0.9578247,-0.066223145,2.671875,7.390625,-8.921875
1695747888947,0.03564453,-0.9795532,-0.033996582,-1.171875,9.265625,-8.734375
1695747888994,-0.01171875,-0.89727783,-0.058654785,0.15625,11.40625,-8.625
1695747889038,0.005859375,-0.861145,-0.07232666,1.8125,12.9375,-6.765625
1695747889068,0.04345703,-0.83477783,-0.07501221,2.453125,10.984375,-3.390625
1695747889113,0.029296875,-0.8352661,-0.057678223,1.9375,9.09375,0.578125
1695747889159,-0.028564453,-0.8772583,-0.04815674,-0.265625,7.4375,1.6875
1695747889191,-0.07324219,-0.909729,-0.05255127,0.21875,8.078125,2.53125
1695747889235,-0.08984375,-0.9541626,-0.047424316,0.484375,9.84375,2.078125
1695747889261,-0.07397461,-1.0042114,-0.07354736,-1.6875,12.1875,0.84375
1695747889310,-0.10888672,-1.0420532,-0.031311035,-6.578125,13.546875,-0.078125
1695747889354,-0.12719727,-1.1084595,0.055358887,-11.21875,15.21875,-0.078125
1695747889383,-0.15527344,-1.1240845,-0.07965088,-10.296875,15.875,2.46875
1695747889427,0.052978516,-1.0879517,-0.18096924,-4.125,23.71875,12.265625
1695747889473,0.25073242,-1.4016724,-0.16705322,-15.890625,14.9375,12.1875
1695747889502,0.1965332,-1.3171997,0.011657715,-10.6875,9.75,7.078125
1695747889548,0.15649414,-0.8538208,-0.14996338,10.828125,10.75,7.359375
1695747889593,0.35595703,-0.9873657,-0.004211426,0.9375,17.578125,9.046875
1695747889623,-0.009521484,-1.0847778,0.032165527,-7.828125,15.640625,-1.53125
1695747889670,-0.008544922,-0.95758057,-0.007385254,1.40625,29.234375,-6.375
1695747889713,0.22021484,-0.85284424,-0.031555176,-6.8125,27.953125,-7.015625
1695747889742,0.03881836,-0.9143677,0.020202637,-8.90625,22.859375,-6.125
1695747889788,0.06958008,-0.88604736,0.02508545,-9.625,24.15625,-4.9375
1695747889864,0.1394043,-0.8381958,0.03338623,-9.78125,23.0625,-2.046875
1695747889868,0.03466797,-0.8406372,0.06707764,-12.140625,20.84375,-3.546875
1695747889909,0.008056641,-0.88116455,0.09246826,-7.921875,24.234375,-5.03125
1695747889938,0.080566406,-0.8357544,0.043884277,-6.453125,21.265625,-2.203125
1695747889983,0.056640625,-0.8635864,0.09539795,-5.5625,18.796875,-0.609375
1695747890029,-0.020263672,-0.9002075,0.11834717,-2.59375,19.125,0.703125
1695747890057,0.0021972656,-0.93414307,0.12298584,-3.03125,17.421875,2.078125
1695747890103,-0.017822266,-0.9849243,0.1762085,-1.375,19.109375,2.078125
1695747890148,-0.045654297,-1.071106,0.2345581,-3.359375,23.96875,2.296875
1695747890178,-0.0925293,-1.0872192,0.23822021,-5.09375,22.4375,0.015625
1695747890226,0.034423828,-1.1213989,0.19256592,2.421875,18.640625,0.40625
1695747890268,0.33251953,-1.1980591,0.06048584,2.09375,0.65625,12.9375
1695747890298,-0.22192383,-1.3076782,0.1329956,5.265625,16.6875,3.3125
1695747890344,0.10839844,-1.0220337,-0.27398682,28.484375,26.78125,-3.390625
1695747890389,0.51293945,-0.82110596,-0.28302002,14.3125,16.078125,10.53125
1695747890421,0.0715332,-0.95928955,-0.2612915,-0.53125,13.0625,2.390625
1695747890463,0.08300781,-0.954895,-0.2564087,7.015625,16.796875,-1.5
1695747890508,0.13061523,-0.9180298,-0.18267822,-1.8125,14.265625,-5.0625
1695747890553,-0.017578125,-0.97540283,-0.09039307,-7.640625,16.109375,-7.203125
1695747890582,0.028076172,-0.9841919,-0.08795166,-6.65625,23.515625,-7.265625
1695747890628,0.029296875,-0.91192627,-0.11090088,-2.265625,26.484375,-6.5
1695747890657,0.10546875,-0.90045166,-0.06744385,0.96875,25.59375,-3.0625
1695747890703,0.08178711,-0.8596802,-0.038635254,-1.03125,23.140625,0.609375
1695747890732,-0.043945312,-0.84820557,-0.022521973,-1.390625,24.0625,0.5
1695747890778,-0.030517578,-0.8953247,-0.042785645,1.5625,19.609375,-1.203125
1695747890823,-0.005126953,-0.8911743,-0.026184082,-2.203125,18.40625,-0.921875
1695747890852,-0.05859375,-0.91412354,-0.0056762695,-1.9375,15.109375,-0.21875
1695747890899,-0.0068359375,-0.9558716,-0.012023926,-4.421875,11.875,0.046875
1695747890943,-0.091796875,-0.92974854,-0.0076293945,-7.296875,9.609375,-0.390625
1695747890972,-0.140625,-1.0169067,0.02923584,-8.203125,9.90625,-0.953125
1695747891018,-0.14990234,-1.097229,0.058044434,-7.3125,10.578125,-0.09375
1695747891065,-0.19702148,-1.0620728,-0.023254395,-6.875,12.328125,3.515625
1695747891092,0.09887695,-1.0994263,-0.16046143,-12.625,12.9375,10.265625
1695747891141,0.2770996,-1.4380493,-7.9345703E-4,-19.890625,8.578125,15.953125
1695747891184,0.008544922,-1.4317017,0.0033569336,-21.984375,1.703125,8.015625
1695747891213,0.30908203,-1.0703735,-0.11651611,2.21875,10.90625,10.4375
1695747891260,0.5527344,-0.8640747,0.016052246,2.265625,10.4375,8.359375
1695747891302,0.15307617,-0.9624634,0.042419434,-2.265625,6.203125,6.859375
1695747891332,0.1640625,-0.9336548,-0.050354004,-0.515625,16.203125,-2.21875
1695747891378,0.31469727,-0.8735962,-0.014465332,-1.015625,19.71875,-5.109375
1695747891408,0.19238281,-0.94976807,0.042419434,-3.296875,17.328125,-6.6875
1695747891453,0.19213867,-0.88604736,0.015563965,-3.03125,16.984375,-8.046875
1695747891498,0.18823242,-0.84625244,0.05633545,-3.890625,16.421875,-5.546875
1695747891526,0.13696289,-0.8665161,0.0770874,-4.53125,15.078125,-6.296875
1695747891574,0.10668945,-0.84869385,0.07122803,-2.921875,15.96875,-7.390625
1695747891619,0.11230469,-0.8452759,0.07513428,-1.34375,15.75,-6.859375
1695747891663,0.07885742,-0.8345337,0.089538574,0.53125,16.59375,-5.21875
1695747891692,0.111572266,-0.8538208,0.07928467,-0.875,14.828125,-2.234375
1695747891739,0.13574219,-0.88946533,0.10272217,-1.34375,10.1875,-0.875
1695747891768,0.13183594,-0.94195557,0.11566162,0.046875,7.515625,2.265625
1695747891813,0.14648438,-0.95880127,0.11981201,0.625,2.921875,3.859375
1695747891858,0.009765625,-0.9812622,0.15228271,-0.203125,2.078125,1.515625
1695747891887,0.026855469,-1.0386353,0.15374756,3.53125,5.484375,-2.75
1695747891934,0.039794922,-1.0359497,0.12908936,6.859375,10.125,-2.328125
1695747891978,0.29370117,-1.046936,-0.00982666,5.6875,2.015625,5.6875
1695747892008,0.1772461,-1.2590942,0.08514404,3.78125,0.984375,12.09375
1695747892053,-0.076171875,-1.2752075,0.020202637,16.21875,12.484375,-1.0
1695747892099,0.35229492,-1.0020142,-0.07183838,14.75,12.046875,1.046875
1695747892126,0.13549805,-1.0349731,-0.04034424,8.03125,8.359375,0.578125
1695747892174,0.03857422,-0.9378052,-0.17877197,13.453125,17.03125,-2.75
1695747892202,0.25585938,-0.8242798,-0.25616455,6.671875,14.734375,-2.984375
1695747892248,0.10205078,-0.9439087,-0.10430908,0.8125,10.765625,-6.328125
1695747892295,0.038085938,-0.9607544,-0.08135986,-1.234375,9.921875,-7.484375
1695747892323,0.12646484,-0.93927,-0.061828613,-4.90625,7.59375,-8.046875
1695747892368,0.048828125,-0.94732666,-0.039367676,-7.03125,4.75,-7.28125
1695747892413,-0.015625,-0.9246216,-0.023010254,-3.578125,7.234375,-7.6875
1695747892443,0.024169922,-0.8748169,-0.05303955,-3.46875,8.78125,-7.34375
1695747892491,0.0390625,-0.84942627,-0.058654785,1.59375,8.5625,-4.40625
1695747892533,0.021972656,-0.8579712,-0.037902832,1.09375,8.328125,-0.90625
1695747892563,0.010498047,-0.8870239,-0.008850098,1.046875,5.4375,0.4375
1695747892609,-0.03466797,-0.92437744,-0.03253174,-0.859375,5.296875,0.65625
1695747892653,-0.02758789,-0.9373169,-0.054748535,1.921875,6.53125,0.96875
1695747892682,-0.08520508,-1.0083618,-0.043273926,2.296875,8.203125,-0.5625
1695747892728,-0.046875,-1.0335083,-0.009094238,-2.375,8.5,-2.359375
1695747892773,-0.095703125,-1.1013794,0.0119018555,-6.875,6.046875,-1.296875
1695747892803,-0.05126953,-1.1448364,-0.028137207,-11.984375,4.578125,0.25
1695747892850,-0.06738281,-1.1553345,-0.13238525,-11.84375,12.265625,4.75
1695747892878,0.3059082,-1.3547974,-0.112854004,-11.96875,0.96875,3.5625
1695747892938,0.2734375,-1.3494263,0.04071045,-16.921875,1.046875,5.515625
1695747892968,0.21191406,-0.8887329,-0.037902832,-1.96875,-7.875,10.6875
1695747892997,0.27783203,-0.97857666,0.04559326,-3.828125,-3.109375,6.09375
1695747893043,0.026855469,-1.0159302,0.03704834,0.171875,-0.4375,-0.015625
1695747893088,0.099121094,-0.8887329,-0.0037231445,3.46875,6.859375,-3.484375
1695747893118,0.12939453,-0.88897705,0.059509277,-1.40625,9.765625,-6.6875
1695747893164,0.10253906,-0.89923096,0.0848999,-5.390625,7.0625,-6.0
1695747893209,0.08105469,-0.862854,0.089782715,-8.671875,6.265625,-4.71875
1695747893239,0.060791016,-0.8233032,0.09222412,-8.0625,6.6875,-3.4375
1695747893285,0.057373047,-0.8152466,0.11907959,-4.65625,7.453125,-2.109375
1695747893331,0.056396484,-0.83966064,0.09100342,-4.171875,7.328125,-2.046875
1695747893358,0.025390625,-0.8381958,0.0993042,-5.171875,7.84375,-1.609375
1695747893403,0.07397461,-0.923645,0.1317749,-2.125,6.34375,-0.078125
1695747893448,0.05078125,-0.95562744,0.17132568,-2.609375,5.0625,0.71875
1695747893477,0.049316406,-0.9690552,0.20526123,-0.28125,5.53125,1.328125
1695747893523,0.048828125,-0.9429321,0.18695068,1.484375,2.28125,2.75
1695747893568,0.041992188,-0.9365845,0.1642456,3.71875,3.390625,3.59375
1695747893597,0.056396484,-0.9517212,0.16815186,4.03125,2.5625,3.453125
1695747893643,-0.027832031,-0.9998169,0.23626709,4.515625,5.765625,3.328125
1695747893673,0.0036621094,-1.0652466,0.18255615,4.359375,8.34375,5.4375
1695747893721,0.057617188,-1.1155396,0.18743896,4.90625,11.359375,5.453125
1695747893763,0.20019531,-1.1777954,0.024353027,7.171875,3.9375,9.8125
1695747893792,0.09692383,-1.34552,0.18743896,-1.5625,6.28125,10.40625
1695747893838,-0.1574707,-1.2532349,0.018737793,23.234375,21.90625,-7.53125
1695747893885,0.37329102,-0.8562622,-0.13409424,19.484375,21.78125,0.453125
1695747893913,0.203125,-0.8550415,-0.15533447,6.296875,13.46875,5.03125
1695747893958,0.08276367,-0.9092407,-0.26324463,6.8125,21.9375,1.3125
1695747894003,0.19458008,-0.89849854,-0.25372314,5.96875,16.515625,-3.09375
1695747894034,0.05493164,-1.0261841,-0.11260986,0.25,14.46875,-10.046875
1695747894079,0.0056152344,-0.99102783,-0.046936035,-1.234375,19.609375,-13.828125
1695747894123,0.036376953,-0.9417114,-0.058654785,-6.140625,21.046875,-12.15625
1695747894152,0.1015625,-0.8933716,-0.085998535,-6.453125,19.203125,-13.65625
1695747894228,0.059814453,-0.82769775,-0.10430908,-0.234375,19.671875,-7.875
1695747894245,0.02319336,-0.86846924,-0.07867432,-1.546875,17.984375,-5.8125
1695747894274,0.008300781,-0.8796997,-0.057678223,-0.40625,15.46875,-5.203125
1695747894318,-0.0847168,-0.861145,-0.057678223,-4.234375,15.46875,-5.09375
1695747894348,-0.040527344,-0.98883057,-0.059631348,-4.46875,14.484375,-7.15625
1695747894394,-0.075927734,-0.93951416,-0.06768799,-6.125,11.25,-5.375
1695747894438,-0.06982422,-0.93414307,-0.042053223,-6.09375,7.640625,-3.546875
1695747894467,-0.14379883,-0.96881104,-0.012512207,-7.796875,9.59375,-2.109375
1695747894513,-0.13549805,-0.92437744,0.015319824,-4.984375,10.5625,-1.6875
1695747894557,-0.2121582,-0.92559814,0.006286621,-3.890625,12.328125,1.078125
1695747894588,-0.29125977,-0.8945923,0.0026245117,-5.21875,12.84375,4.15625
1695747894633,-0.21557617,-0.99713135,0.0079956055,-1.28125,15.765625,6.71875
1695747894677,-0.33691406,-1.0020142,0.020935059,-1.1875,19.984375,7.78125
1695747894708,-0.31225586,-1.1028442,0.035339355,0.65625,19.859375,8.25
1695747894754,-0.18139648,-1.1279907,-5.493164E-4,3.0625,35.59375,13.640625
1695747894798,0.091552734,-1.1873169,-0.008605957,-1.1875,19.1875,19.0
1695747894843,-0.087646484,-1.3047485,0.014587402,-5.328125,26.765625,15.28125
1695747894872,0.17089844,-1.1067505,-0.31036377,4.75,22.25,18.0
1695747894919,0.4116211,-0.9319458,-0.14727783,-1.453125,33.5625,16.125
1695747894948,0.37841797,-1.0645142,-0.012756348,-12.0625,29.515625,8.84375
1695747894993,0.3947754,-0.9758911,-0.0491333,-13.28125,28.453125,9.40625
1695747895038,0.28466797,-0.93756104,-0.05987549,-13.828125,30.9375,-0.5625
1695747895067,0.28466797,-1.0186157,-0.059387207,-11.421875,33.0,-5.171875
1695747895114,0.24145508,-0.9229126,-0.07525635,-6.546875,34.890625,-9.53125
1695747895143,0.29125977,-0.897522,-0.117004395,-4.421875,33.828125,-7.921875
1695747895188,0.3161621,-0.9002075,-0.03692627,-7.921875,30.546875,-7.125
1695747895233,0.19213867,-0.92144775,0.031921387,-8.953125,23.96875,-5.375
1695747895263,0.13232422,-0.9067993,0.035583496,-6.234375,23.734375,-8.09375
1695747895310,0.1081543,-0.881897,0.022888184,-2.28125,23.03125,-8.96875
1695747895352,0.1340332,-0.8779907,0.04925537,-4.3125,20.640625,-7.046875
1695747895382,0.07763672,-0.8748169,0.050476074,-5.609375,17.71875,-5.109375
1695747895429,0.09375,-0.9072876,0.090270996,-6.125,17.953125,-2.65625
1695747895503,0.048828125,-0.9324341,0.08416748,-5.390625,14.34375,-3.53125
1695747895508,0.053222656,-0.940979,0.08148193,-3.234375,14.296875,-3.53125
1695747895559,0.07495117,-0.9216919,0.11224365,0.453125,11.125,-1.828125
1695747895594,0.0068359375,-0.8989868,0.12249756,-1.34375,11.921875,-2.640625
1695747895622,-0.009521484,-0.940979,0.1408081,-4.609375,13.53125,-3.15625
1695747895670,0.008544922,-1.0007935,0.11834717,-2.53125,14.453125,-1.78125
1695747895712,0.10205078,-1.0579224,0.04559326,0.4375,11.359375,-0.796875
1695747895742,0.23461914,-1.1482544,0.062683105,0.21875,4.875,9.90625
1695747895788,-0.1015625,-1.2976685,0.10687256,5.03125,10.28125,2.078125
1695747895820,0.16186523,-1.1397095,0.005065918,15.953125,15.015625,-2.03125
1695747895863,0.25048828,-1.0618286,0.0099487305,9.296875,8.296875,3.75
1695747895907,0.005126953,-1.0276489,-0.09210205,15.0,11.765625,0.28125
1695747895937,0.1328125,-0.8452759,-0.2053833,16.234375,16.734375,0.9375
1695747895981,0.2331543,-0.87628174,-0.14312744,10.109375,9.875,1.15625
1695747896027,0.04711914,-0.98223877,-0.06085205,3.125,11.6875,-0.96875
1695747896056,0.064453125,-0.90509033,-0.07623291,-2.0,12.1875,-4.796875
1695747896117,0.14013672,-0.9224243,-0.05279541,-2.484375,7.953125,-5.203125
1695747896147,0.045898438,-0.9680786,-0.018615723,-3.515625,6.40625,-4.296875
1695747896178,0.013427734,-0.97540283,-0.057678223,-0.3125,8.90625,-3.859375
1695747896221,-4.8828125E-4,-0.9212036,-0.04547119,0.921875,12.46875,-5.84375
1695747896267,-0.01171875,-0.8765259,-0.070373535,3.0,13.546875,-4.671875
1695747896297,0.071777344,-0.88604736,-0.0335083,2.59375,14.078125,-3.15625
1695747896342,0.0012207031,-0.8567505,-0.02154541,1.53125,11.3125,-1.390625
1695747896388,-0.0031738281,-0.89971924,-0.049621582,-1.203125,8.96875,-0.109375
1695747896433,-0.008300781,-0.9429321,-0.037902832,0.4375,7.21875,-0.25
1695747896462,-0.032714844,-0.9751587,-0.028625488,2.203125,6.109375,1.140625
1695747896508,-0.033447266,-0.9968872,-0.019836426,0.0,5.625,-1.234375
1695747896552,-0.091796875,-1.0374146,-0.009094238,-0.328125,6.5625,-0.484375
1695747896583,-0.075927734,-1.0691528,0.0018920898,-5.53125,5.375,-1.296875
1695747896613,-0.043945312,-1.1416626,-0.07330322,-8.71875,10.140625,1.609375
1695747896656,0.16113281,-1.1843872,-0.13409424,-7.734375,0.078125,6.40625
1695747896702,0.16748047,-1.2722778,-0.023254395,-15.015625,-2.40625,3.953125
1695747896731,0.13256836,-1.180481,-0.038879395,-7.1875,-9.640625,5.578125
1695747896793,0.23657227,-1.0369263,-0.07476807,-2.40625,-8.359375,6.484375
1695747896822,0.23339844,-0.9356079,0.05706787,-1.984375,-9.5,3.25
1695747896851,-0.013916016,-0.9849243,0.03729248,-0.4375,-4.578125,-1.125
1695747896898,0.19262695,-0.9175415,-0.03765869,1.90625,1.984375,-3.265625
1695747896943,0.14477539,-0.87823486,0.062194824,-2.03125,1.9375,-4.109375
1695747896971,0.009521484,-0.9458618,0.101745605,-4.796875,1.015625,-4.421875
1695747897018,0.059326172,-0.9348755,0.070495605,-8.078125,5.03125,-7.796875
1695747897064,0.07885742,-0.897522,0.07659912,-4.234375,6.40625,-5.265625
1695747897092,0.08520508,-0.8809204,0.08099365,-1.796875,4.734375,-2.421875
1695747897137,0.050048828,-0.847229,0.09832764,-0.578125,3.640625,-1.796875
1695747897184,0.044921875,-0.83721924,0.06707764,1.109375,3.453125,-0.703125
1695747897214,0.06225586,-0.8140259,0.07098389,2.609375,2.40625,1.453125
1695747897259,0.04638672,-0.88360596,0.1161499,0.609375,0.765625,1.53125
1695747897287,0.020263672,-0.9180298,0.12298584,1.015625,1.390625,1.65625
1695747897336,0.064697266,-0.958313,0.13153076,0.5,0.03125,2.90625
1695747897378,0.024902344,-1.0266724,0.20648193,-2.421875,1.265625,1.390625
1695747897409,-0.037841797,-1.0454712,0.17596436,-0.921875,2.515625,0.40625
1695747897453,0.092041016,-1.0772095,0.09124756,1.859375,0.8125,1.96875
1695747897498,0.30639648,-1.1680298,0.04046631,2.15625,-5.234375,13.4375
1695747897528,-0.025146484,-1.3181763,0.11956787,3.46875,-0.921875,13.15625
1695747897573,0.09008789,-1.0708618,-0.02911377,15.78125,3.921875,-1.453125
1695747897618,0.33203125,-1.1087036,0.016296387,6.328125,1.546875,6.546875
1695747897648,0.042236328,-1.1504517,-0.011047363,7.234375,1.390625,0.875
1695747897692,0.033203125,-0.91192627,-0.1375122,17.140625,9.90625,-2.34375
1695747897738,0.19042969,-0.8052368,-0.20489502,10.15625,8.3125,-1.4375
1695747897768,0.13696289,-0.9241333,-0.1026001,5.703125,6.875,-3.0
1695747897813,0.055664062,-0.91119385,-0.07550049,0.34375,8.9375,-5.28125
1695747897859,0.11010742,-0.9470825,-0.113586426,-4.71875,6.328125,-6.0
1695747897888,0.03930664,-1.0032349,-0.035705566,-5.640625,4.15625,-7.296875
1695747897933,-0.021972656,-0.9558716,-0.0051879883,-5.8125,5.28125,-10.46875
1695747898008,-0.0625,-0.85406494,-0.018371582,-4.515625,10.796875,-12.53125
1695747898012,-0.025390625,-0.7954712,-0.013977051,-1.921875,14.578125,-13.296875
1695747898085,0.012451172,-0.7695923,-0.033996582,-1.8125,14.5,-8.421875
1695747898091,0.024902344,-0.73931885,-0.014221191,2.71875,11.046875,-2.28125
1695747898129,0.115478516,-0.8171997,-0.09844971,-11.71875,-2.578125,3.890625
1695747898173,0.03466797,-1.0869751,-0.031555176,-16.296875,-2.703125,7.75
1695747898203,-0.24829102,-1.3689575,0.06121826,3.671875,9.015625,-3.921875
1695747898248,-0.09423828,-0.9937134,0.077819824,7.71875,13.921875,-10.9375
1695747898294,0.08081055,-0.85113525,0.113464355,-6.484375,0.984375,-2.34375
1695747898322,-0.09863281,-0.93170166,0.035827637,-8.8125,-2.171875,0.8125
1695747898368,-0.12133789,-1.0161743,0.039978027,-4.390625,3.921875,-1.828125
1695747898414,-0.0925293,-1.1682739,-0.0491333,-1.9375,3.015625,2.859375
1695747898444,0.084228516,-1.2615356,-0.008361816,-5.453125,0.4375,7.625
1695747898490,0.23144531,-1.411438,0.04876709,-15.65625,-6.640625,6.765625
1695747898532,-0.0234375,-1.1480103,0.04949951,-7.640625,-8.28125,6.546875
1695747898564,0.30151367,-0.9993286,-0.07696533,5.265625,-10.734375,7.171875
1695747898609,0.2680664,-0.9639282,0.105651855,0.703125,-7.890625,7.859375
1695747898652,-0.03955078,-1.0828247,0.046813965,-0.9375,-4.640625,0.515625
1695747898683,0.17089844,-0.9121704,-0.009338379,7.84375,3.75,-1.21875
1695747898728,0.076416016,-0.9048462,0.11199951,-0.703125,2.484375,-2.046875
1695747898758,0.01171875,-0.9595337,0.12347412,-5.53125,3.359375,-3.65625
1695747898805,0.07080078,-0.8543091,0.074157715,-4.34375,2.71875,-5.484375
1695747898848,0.14208984,-0.8308716,0.0770874,-4.46875,2.453125,-1.28125
1695747898877,0.08520508,-0.74420166,0.09466553,-0.390625,-0.046875,0.28125
1695747898923,0.044921875,-0.6651001,0.0914917,5.03125,-0.65625,0.25
1695747898968,0.013671875,-0.6289673,0.034118652,5.921875,2.21875,-1.578125
1695747899000,0.061035156,-0.7346802,-0.042541504,4.75,4.625,1.046875
1695747899043,0.17553711,-1.0535278,0.09124756,-5.125,1.875,3.21875
1695747899089,0.18261719,-1.421936,0.29803467,-5.65625,-5.328125,7.09375
1695747899119,0.04248047,-1.1494751,0.26019287,6.359375,-10.4375,4.5625
1695747899165,-0.08642578,-0.75372314,0.117614746,11.953125,-6.21875,-0.703125
1695747899207,-0.017578125,-0.9290161,0.16741943,5.671875,0.1875,2.34375
1695747899253,0.1184082,-1.038147,0.04486084,1.421875,-1.625,1.4375
1695747899282,0.39794922,-1.1773071,-0.0095825195,-1.8125,-10.25,13.625
1695747899345,-0.037597656,-1.4251099,0.16107178,0.34375,-0.875,8.984375
1695747899371,0.06518555,-1.2647095,-0.015686035,19.15625,4.59375,-5.90625
1695747899403,0.35595703,-1.0281372,0.0079956055,7.84375,1.1875,4.3125
1695747899478,-0.015625,-1.0042114,-0.09942627,17.453125,5.890625,-2.53125
1695747899483,0.14501953,-0.80255127,-0.19171143,17.046875,12.15625,-6.40625
1695747899524,0.1965332,-0.8032837,-0.15142822,4.375,8.5625,-7.5
1695747899553,0.024169922,-0.9783325,-0.12701416,-1.546875,7.515625,-9.890625
1695747899598,0.048828125,-0.9595337,-0.13311768,0.859375,6.71875,-11.59375
1695747899644,0.092285156,-0.9234009,-0.051574707,-2.640625,1.296875,-10.15625
1695747899672,-0.009521484,-0.91241455,-0.008605957,-4.46875,3.140625,-8.359375
1695747899718,-0.07836914,-0.8545532,-0.047668457,-1.265625,7.34375,-7.875
1695747899763,0.0048828125,-0.8015747,-0.062072754,2.3125,7.265625,-7.109375
1695747899792,0.018310547,-0.8064575,-0.06378174,2.171875,6.59375,-1.484375
1695747899838,-0.006591797,-0.8569946,-0.01373291,0.90625,1.390625,2.765625
1695747899883,-0.06225586,-0.9378052,-0.042785645,-1.375,0.296875,4.453125
1695747899912,-0.080566406,-0.9702759,-0.03717041,-1.625,1.6875,1.8125
1695747899958,-0.056884766,-1.0093384,-0.032043457,3.9375,4.03125,3.171875
1695747900004,-0.09716797,-1.0344849,-0.012268066,1.875,6.828125,2.71875
1695747900033,-0.11328125,-1.0542603,-0.00982666,-2.328125,6.8125,2.625
1695747900078,-0.08544922,-1.1106567,-0.027648926,-8.6875,7.71875,2.765625
1695747900123,-0.05493164,-1.1294556,-0.13604736,-4.75,9.453125,4.953125
1695747900153,0.15698242,-1.2632446,-0.19244385,-5.078125,6.8125,8.625
1695747900199,0.34179688,-1.4324341,-0.0044555664,-21.78125,0.84375,3.265625
1695747900228,0.18334961,-1.1365356,0.048034668,-11.59375,-7.328125,7.1875
1695747900289,0.20043945,-0.881897,-0.018859863,-1.359375,-5.984375,5.0625
1695747900318,0.28857422,-0.97662354,0.039733887,-7.65625,-4.796875,1.859375
1695747900348,0.10424805,-0.9883423,0.02166748,-5.484375,-4.734375,-1.9375
1695747900395,0.19848633,-0.8743286,0.057556152,-3.0,-1.546875,-4.015625
1695747900438,0.078125,-0.8694458,0.11785889,-4.953125,-2.328125,-5.109375
1695747900468,0.028808594,-0.8308716,0.0758667,-1.984375,-1.15625,-7.5625
1695747900514,0.13452148,-0.79229736,0.04510498,-3.6875,0.953125,-5.4375
1695747900559,0.13769531,-0.81988525,0.090270996,-2.0,-1.078125,-0.046875
1695747900588,0.08251953,-0.8320923,0.109069824,-5.734375,-1.625,-0.359375
1695747900633,0.061279297,-0.8804321,0.15228271,-6.796875,-2.71875,-0.328125
1695747900678,0.0034179688,-0.9273071,0.14886475,-3.046875,-1.171875,-2.1875
1695747900707,0.059326172,-0.9014282,0.14105225,-0.15625,1.015625,-0.90625
1695747900753,0.08081055,-0.9282837,0.16644287,3.203125,-2.140625,2.890625
1695747900798,0.10498047,-0.9439087,0.17352295,0.390625,-4.03125,4.078125
1695747900827,0.056884766,-0.95269775,0.21014404,-2.03125,-6.15625,4.890625
1695747900874,-0.036865234,-1.0222778,0.215271,1.921875,-4.3125,2.578125
1695747900919,-0.025146484,-1.0564575,0.16107178,5.34375,0.875,0.453125
1695747900947,0.13598633,-1.1480103,0.051940918,15.46875,2.578125,0.8125
1695747900994,0.654541,-1.2566528,0.0053100586,16.046875,-14.484375,28.265625
1695747901022,-0.42651367,-1.4519653,0.24334717,2.21875,-1.546875,1.03125
1695747901068,0.12060547,-1.0471802,-0.19073486,32.640625,15.390625,-7.9375
1695747901114,0.5192871,-0.8413696,-0.082092285,15.0625,10.015625,3.953125
1695747901143,-0.17211914,-1.0234985,-0.04425049,4.015625,9.875,-5.09375
1695747901189,0.19018555,-0.8286743,-0.2078247,6.28125,19.265625,-7.234375
1695747901233,0.23828125,-0.861145,-0.06890869,1.859375,11.25,-7.453125
1695747901265,-0.029541016,-0.9578247,-0.02154541,-1.609375,7.421875,-10.265625
1695747901308,0.03857422,-0.88604736,-0.04864502,-5.140625,11.578125,-10.71875
1695747901355,0.024902344,-0.87750244,-0.019104004,-0.125,9.375,-8.515625
1695747901383,-0.05517578,-0.8623657,-0.029846191,-1.1875,9.15625,-8.15625
1695747901428,0.040771484,-0.85601807,-0.045715332,2.34375,11.578125,-4.625
1695747901474,0.0061035156,-0.8674927,-0.014953613,1.78125,8.921875,-2.890625
1695747901502,-0.045654297,-0.9209595,-0.014709473,1.90625,8.4375,-0.171875
1695747901548,-0.10229492,-0.9258423,-0.023742676,-0.1875,10.859375,-2.046875
1695747901595,-0.10595703,-0.9360962,-0.06964111,1.28125,13.65625,-3.296875
1695747901623,-0.08325195,-0.94854736,-0.03717041,3.5,16.3125,-3.515625
1695747901668,-0.119628906,-0.95318604,-0.011291504,-0.09375,16.796875,-0.234375
1695747901697,-0.10498047,-1.0010376,-0.010803223,-6.171875,14.671875,0.765625
1695747901743,-0.10205078,-1.0366821,0.015319824,-4.859375,11.828125,3.671875
1695747901788,-0.12695312,-1.0842896,0.02532959,-5.015625,13.015625,7.609375
1695747901817,-0.17504883,-1.1345825,0.019958496,-3.515625,13.109375,11.65625
1695747901863,-0.12597656,-1.2720337,-0.006164551,-0.890625,10.703125,10.78125
1695747901908,0.004638672,-1.2437134,-0.035705566,1.640625,16.125,18.8125
1695747901937,0.1772461,-1.1985474,-0.093811035,-3.234375,14.921875,26.484375
1695747901984,0.115234375,-1.1467896,-0.11602783,-14.984375,7.9375,17.625
1695747902028,0.23535156,-0.8718872,-0.16900635,10.15625,19.34375,17.140625
1695747902057,0.39575195,-0.7642212,-0.2366333,-3.28125,26.34375,13.90625
1695747902103,0.12695312,-0.923645,-0.10235596,-10.84375,31.296875,3.609375
1695747902148,0.10229492,-0.9302368,-0.15875244,-2.796875,37.953125,-5.015625
1695747902177,0.2854004,-0.895813,-0.19390869,-9.21875,45.0625,-7.15625
1695747902222,0.27416992,-1.0046997,-0.17047119,-13.453125,39.484375,-7.3125
1695747902269,0.27270508,-0.98638916,-0.07623291,-13.546875,36.421875,-5.6875
1695747902298,0.111816406,-0.93096924,-0.038879395,-13.34375,36.296875,-7.765625
1695747902344,0.11206055,-0.90704346,-0.07086182,-11.9375,39.265625,-8.484375
1695747902389,0.15283203,-0.9324341,-0.02935791,-13.953125,38.140625,-7.703125
1695747902418,0.095947266,-0.91607666,-0.011291504,-12.03125,34.40625,-8.1875
1695747902463,0.12890625,-0.8574829,-0.011047363,-11.484375,32.0,-7.03125
1695747902493,0.092285156,-0.86260986,0.055114746,-15.84375,28.21875,-5.375
1695747902538,0.061279297,-0.9060669,0.09490967,-14.515625,24.9375,-3.984375
1695747902584,0.05517578,-0.9273071,0.0993042,-13.375,22.75,-2.109375
1695747902613,0.032958984,-0.8765259,0.13934326,-5.53125,21.5,-2.734375
1695747902658,-0.080566406,-0.9155884,0.15057373,-4.453125,24.109375,-3.953125
1695747902704,-0.015380859,-0.95391846,0.11810303,-3.65625,23.1875,-3.34375
1695747902731,-0.0026855469,-0.96099854,0.1749878,-2.71875,23.46875,-5.328125
1695747902779,-0.103027344,-0.97784424,0.18865967,-0.78125,26.453125,-3.828125
1695747902824,-0.04248047,-0.9990845,0.1876831,-1.953125,26.109375,-3.890625
1695747902854,0.084472656,-1.0864868,0.038024902,1.859375,21.671875,1.484375
1695747902898,0.056152344,-1.1375122,0.14129639,0.0,16.84375,4.875
1695747902943,-0.13085938,-1.2949829,0.062438965,6.21875,23.53125,0.46875
1695747902973,0.15673828,-1.1721802,0.031433105,14.78125,25.9375,-1.15625
1695747903018,0.20385742,-1.0510864,0.026550293,12.171875,15.875,8.0
1695747903062,-0.020263672,-0.99224854,-0.06719971,11.078125,12.515625,2.953125
1695747903092,0.122558594,-0.9451294,-0.19049072,11.8125,21.5,2.375
1695747903138,0.3503418,-0.89141846,-0.23614502,8.359375,13.75,3.53125
1695747903184,0.12426758,-0.9492798,-0.20391846,1.0625,8.0,0.90625
1695747903213,0.052001953,-1.019104,-0.1831665,2.28125,16.890625,-4.484375
1695747903258,0.15551758,-0.9763794,-0.1716919,5.109375,18.828125,-5.109375
1695747903288,0.15625,-0.9248657,-0.09503174,2.28125,16.328125,-4.515625
1695747903334,0.0146484375,-0.89019775,-0.0881958,-0.296875,20.203125,-1.578125
1695747903379,0.041748047,-0.8386841,-0.11090088,1.375,21.28125,-4.328125
1695747903407,0.083740234,-0.82476807,-0.093566895,4.234375,21.140625,-0.65625
1695747903453,0.09082031,-0.8428345,-0.07940674,0.78125,17.65625,2.109375
1695747903499,0.03466797,-0.9187622,-0.074035645,-1.03125,14.625,4.953125
1695747903527,-0.010253906,-0.93463135,-0.06402588,-1.59375,12.578125,2.59375
1695747903574,0.0048828125,-0.9614868,-0.058166504,2.59375,9.875,2.015625
1695747903618,0.037353516,-1.0020142,-0.06427002,-1.953125,9.21875,1.078125
1695747903648,-0.05126953,-1.003479,-0.038391113,-3.09375,7.15625,0.21875
1695747903695,-0.052001953,-0.9841919,-0.043762207,-2.25,5.578125,0.046875
1695747903738,-0.049072266,-1.0115356,-0.058166504,-6.875,6.203125,-2.9375
1695747903767,-0.07055664,-1.071106,-0.07183838,-5.609375,4.890625,-1.484375
1695747903813,-0.032470703,-1.0755005,-0.17926025,-1.921875,5.40625,-0.359375
1695747903859,0.37158203,-1.18927,-0.11505127,-10.875,3.34375,4.40625
1695747903887,0.19873047,-1.3682251,0.048034668,-16.21875,-6.328125,3.09375
1695747903932,-0.09423828,-1.1192017,-0.06427002,0.359375,-5.890625,2.578125
1695747903961,0.46704102,-1.0308228,-0.07330322,3.625,-0.59375,3.984375
1695747904009,0.16918945,-0.92926025,0.054626465,0.6875,-10.09375,4.484375
1695747904053,0.05102539,-0.94366455,0.01361084,-2.921875,-4.671875,-0.46875
1695747904083,0.31958008,-0.9421997,-0.0012817383,-2.15625,1.53125,-1.375
1695747904128,0.16796875,-0.9089966,0.09832764,-4.453125,-3.03125,-0.640625
1695747904173,0.06323242,-0.9397583,0.07489014,-3.4375,-1.34375,-2.78125
1695747904202,0.14013672,-0.8760376,0.034362793,-6.28125,-0.609375,-5.90625
1695747904248,0.107910156,-0.86798096,0.0758667,0.328125,-2.1875,-2.09375
1695747904293,0.083984375,-0.8152466,0.061462402,0.53125,-1.421875,-2.625
1695747904323,0.045410156,-0.79351807,0.05682373,1.46875,-0.28125,-2.46875
1695747904368,0.060546875,-0.831604,0.085876465,-0.796875,-0.3125,-1.96875
1695747904430,0.053955078,-0.8587036,0.06512451,-1.09375,-1.171875,-2.515625
1695747904458,0.072021484,-0.9368286,0.11907959,1.90625,-1.828125,-1.953125
1695747904489,0.04321289,-0.96954346,0.1449585,1.328125,-1.625,-0.078125
1695747904534,0.09106445,-0.9841919,0.13812256,-1.53125,-2.234375,1.75
1695747904563,0.09448242,-0.9937134,0.18597412,0.015625,-1.640625,3.0625
1695747904608,-0.0024414062,-0.98516846,0.1515503,-0.28125,-1.390625,1.65625
1695747904653,0.057373047,-1.0574341,0.14666748,3.796875,1.359375,2.96875
1695747904683,0.19702148,-1.1043091,0.0138549805,3.28125,-0.203125,3.734375
1695747904728,0.23730469,-1.2024536,0.06365967,5.828125,-2.734375,12.40625
1695747904758,-0.05126953,-1.3396606,0.057800293,7.359375,7.34375,1.09375
1695747904804,0.28125,-1.1963501,-0.018127441,13.5,8.625,-2.265625
1695747904848,0.26904297,-1.1333618,0.012878418,3.21875,1.859375,-0.484375
1695747904877,-0.057861328,-0.9619751,-0.19659424,11.34375,10.953125,-6.921875
1695747904923,0.17797852,-0.7925415,-0.22930908,12.109375,14.859375,-7.96875
1695747904969,0.16601562,-0.8648071,-0.12774658,4.28125,7.703125,-7.421875
1695747904997,-0.0041503906,-0.89385986,-0.06378174,0.0625,9.28125,-7.234375
1695747905044,0.033203125,-0.85113525,-0.11407471,-3.96875,9.03125,-10.34375
1695747905089,0.088134766,-0.9089966,-0.08428955,-5.125,5.28125,-9.578125
1695747905117,-0.018310547,-0.90411377,-0.028137207,-8.640625,3.546875,-8.671875
1695747905163,-0.05053711,-0.90826416,-0.02935791,-14.5,4.59375,-11.390625
1695747905208,0.009765625,-0.8753052,-0.018127441,-7.0625,5.6875,-9.21875
1695747905237,0.018066406,-0.84820557,-0.016418457,-5.8125,4.4375,-3.890625
1695747905285,4.8828125E-4,-0.8760376,0.01751709,-3.390625,2.53125,-0.078125
1695747905327,-0.07055664,-0.9360962,0.018981934,-6.953125,3.125,-0.34375
1695747905358,-0.059814453,-0.95196533,0.027038574,-2.859375,4.953125,1.140625
1695747905405,-0.0859375,-0.96173096,0.016052246,5.234375,4.921875,2.3125
1695747905448,-0.080078125,-0.95025635,0.04852295,4.078125,6.078125,1.609375
1695747905477,-0.08666992,-0.9763794,0.06903076,4.390625,4.8125,3.671875
1695747905522,-0.12670898,-1.0210571,0.059265137,0.4375,3.84375,4.125
1695747905552,-0.072021484,-1.1016235,0.06488037,2.1875,1.828125,4.734375
1695747905597,-0.087402344,-1.0984497,0.05340576,-1.125,0.875,5.71875
1695747905643,-0.12597656,-1.1253052,-0.020568848,-0.984375,4.84375,9.46875
1695747905674,0.118652344,-1.2337036,0.014099121,-5.28125,4.828125,11.21875
1695747905749,0.09326172,-1.3408813,0.034118652,-17.296875,2.28125,11.375
1695747905762,-0.0031738281,-1.1965942,-0.0029907227,-12.65625,0.34375,6.25
1695747905794,0.33129883,-1.0759888,-0.018127441,0.421875,6.421875,4.09375
1695747905838,0.21606445,-0.9356079,0.061706543,-4.765625,6.890625,3.53125
1695747905884,0.0715332,-0.9656372,-0.05303955,-5.875,12.28125,-4.125
1695747905913,0.12768555,-0.8911743,-0.057678223,-3.90625,23.203125,-11.359375
1695747905958,0.03149414,-0.90802,0.046325684,-5.75,25.859375,-15.953125
1695747906003,0.09008789,-0.9307251,0.061950684,-11.453125,23.90625,-16.296875
1695747906033,0.08325195,-0.8062134,0.009460449,-9.140625,24.53125,-14.78125
1695747906078,0.12866211,-0.8010864,0.032165527,-8.3125,21.921875,-10.96875
1695747906123,0.07446289,-0.8225708,0.11419678,-5.765625,18.953125,-6.546875
1695747906152,-0.022460938,-0.8184204,0.09466553,-4.453125,21.0,-7.828125
1695747906198,-0.0029296875,-0.8323364,0.07366943,-1.765625,23.96875,-6.703125
1695747906228,-0.057373047,-0.909729,0.11102295,0.625,27.84375,-7.828125
1695747906272,-0.04711914,-0.9585571,0.13079834,2.84375,30.078125,-5.90625
1695747906319,-0.05078125,-0.9439087,0.1671753,1.53125,31.390625,-4.75
1695747906348,-0.10498047,-0.97369385,0.17352295,-1.046875,32.828125,-3.546875
1695747906393,-0.1184082,-0.94415283,0.17913818,2.25,36.109375,-2.875
1695747906438,-0.13964844,-0.9644165,0.14886475,1.765625,39.5625,-4.6875
1695747906467,-0.122558594,-0.97198486,0.14788818,2.1875,39.640625,-8.828125
1695747906514,-0.072265625,-0.94610596,0.1774292,4.578125,41.375,-10.28125
1695747906559,-0.088378906,-0.96295166,0.2074585,0.125,42.953125,-14.390625
1695747906587,-0.083740234,-0.9265747,0.25286865,-4.765625,46.828125,-13.046875
1695747906633,-0.14648438,-1.041565,0.10296631,-14.734375,32.46875,-8.75
1695747906679,0.16455078,-1.3074341,-0.12872314,-3.296875,20.734375,-0.859375
1695747906708,-0.1899414,-1.1992798,0.049987793,24.0625,37.640625,0.046875
1695747906753,-0.4267578,-0.86602783,-0.0049438477,25.5,61.09375,-15.59375
1695747906798,0.17382812,-0.784729,-0.23760986,-0.59375,42.71875,-1.109375
1695747906827,0.22265625,-1.0745239,-0.14068604,-6.5625,20.953125,4.84375
1695747906874,-0.24780273,-1.2000122,0.089782715,4.453125,23.984375,0.078125
1695747906903,-0.2836914,-0.92852783,0.06732178,5.5625,34.015625,-5.625
1695747906948,-0.103271484,-0.8882446,-0.078430176,-5.859375,33.609375,-7.21875
1695747907024,-0.08203125,-0.92852783,-0.07720947,3.671875,25.59375,-6.4375
1695747907028,-0.079589844,-0.95147705,0.016784668,0.96875,21.328125,-3.109375
1695747907068,-0.118896484,-0.9727173,0.06854248,0.90625,19.265625,1.234375
1695747907114,-0.16308594,-0.95880127,0.05633545,-2.703125,15.609375,2.140625
1695747907160,-0.1274414,-0.9651489,0.026550293,5.015625,16.921875,2.6875
1695747907188,-0.14916992,-0.940979,0.042907715,6.796875,13.609375,3.53125
1695747907233,-0.17041016,-0.9639282,0.055358887,7.1875,11.109375,4.71875
1695747907262,-0.17895508,-0.9475708,0.045837402,7.328125,10.609375,6.015625
1695747907308,-0.1821289,-0.97198486,0.044128418,4.078125,10.734375,5.453125
1695747907353,-0.21484375,-0.9924927,0.07196045,3.546875,9.796875,5.703125
1695747907383,-0.21704102,-1.00177,0.066345215,2.21875,7.515625,5.671875
1695747907429,-0.22192383,-1.0354614,0.006286621,1.21875,10.015625,7.0
1695747907473,-0.071777344,-1.1001587,-0.0020141602,-5.71875,9.234375,7.921875
1695747907503,0.029541016,-1.2266235,0.019470215,-5.15625,5.15625,9.4375
1695747907549,-0.052490234,-1.1902466,0.03778076,-8.828125,3.703125,9.640625
1695747907592,0.13842773,-1.3413696,-0.0095825195,-8.0,2.046875,9.09375
1695747907622,0.3840332,-1.2510376,0.049743652,-4.15625,4.765625,9.8125
1695747907668,0.22436523,-1.0220337,0.10760498,3.015625,-3.140625,11.484375
1695747907697,0.092285156,-0.9138794,0.1239624,-2.703125,2.8125,9.171875
1695747907743,0.17895508,-0.87628174,0.05999756,2.0,6.359375,4.046875
1695747907789,0.12890625,-0.81427,0.13616943,1.734375,5.765625,1.65625
1695747907818,0.061279297,-0.91900635,0.094177246,-2.984375,3.6875,-1.359375
1695747907864,0.18554688,-0.8765259,0.09075928,-3.328125,6.0625,-1.828125
1695747907910,0.122802734,-0.87823486,0.120788574,-2.65625,2.21875,0.6875
1695747907937,0.099853516,-0.87945557,0.12200928,-0.890625,2.15625,0.40625
1695747907983,0.022460938,-0.8735962,0.10394287,0.71875,5.21875,-2.5625
1695747908043,0.0871582,-0.86798096,0.12249756,1.65625,8.21875,-2.140625
1695747908058,0.09814453,-0.84503174,0.10638428,3.609375,7.34375,-0.765625
1695747908103,0.052001953,-0.8428345,0.12249756,2.75,6.046875,0.734375
1695747908179,0.1027832,-0.90802,0.14886475,3.53125,3.453125,1.421875
1695747908183,0.09057617,-0.89190674,0.11102295,0.765625,0.328125,2.78125
1695747908223,0.1105957,-0.975647,0.16400146,-0.265625,-0.859375,3.875
1695747908269,0.060058594,-1.046936,0.21380615,0.28125,-0.75,1.15625
1695747908299,-0.004638672,-1.0369263,0.20013428,0.5625,1.0625,-1.734375
1695747908343,-0.03955078,-1.036438,0.16351318,4.25,6.171875,-5.359375
1695747908373,0.3371582,-1.0840454,-0.026916504,8.140625,-0.0625,1.140625
1695747908418,0.2084961,-1.2283325,0.17449951,-0.21875,-5.09375,14.03125
1695747908462,-0.1538086,-1.4492798,0.121520996,9.578125,3.625,-3.84375
1695747908493,0.37109375,-0.9619751,-0.077941895,16.3125,8.65625,-1.5625
1695747908554,0.1652832,-1.0523071,0.040222168,3.5,4.078125,2.109375
1695747908598,-0.050048828,-0.97540283,-0.15875244,14.25,14.5625,-3.09375
1695747908613,0.30444336,-0.7307739,-0.22076416,12.71875,13.609375,-1.03125
1695747908673,0.08935547,-0.88726807,-0.049621582,1.515625,4.8125,-3.09375
1695747908719,-0.03930664,-0.9585571,-0.023986816,-0.828125,5.28125,-5.75
1695747908732,0.11035156,-0.9690552,-0.06573486,-6.15625,5.578125,-9.375
1695747908779,0.055664062,-0.9924927,0.004333496,0.78125,6.21875,-7.203125
1695747908824,-0.0234375,-0.9673462,-0.027160645,0.65625,7.75,-7.140625
1695747908852,0.095458984,-0.89141846,-0.054748535,3.0,10.828125,-7.671875
1695747908899,0.048583984,-0.8167114,-0.031066895,4.9375,8.4375,-3.5
1695747908944,-0.009765625,-0.8555298,-0.0012817383,2.34375,6.90625,-0.90625
1695747908972,-0.012939453,-0.84381104,-0.039611816,-1.328125,5.859375,-1.609375
1695747909018,-0.010253906,-0.8609009,-0.05718994,-4.15625,4.6875,-1.9375
1695747909064,-0.013183594,-0.98931885,-0.030822754,0.59375,4.0,-0.0625
1695747909093,-0.09350586,-1.0125122,-0.03668213,-2.796875,3.6875,1.1875
1695747909139,-0.03149414,-1.1074829,-0.009338379,-4.359375,3.546875,1.4375
1695747909168,-0.06982422,-1.1209106,-0.0076293945,-2.1875,2.546875,2.53125
1695747909213,-0.05029297,-1.0964966,-0.08404541,-3.890625,7.5,4.5
1695747909258,0.25097656,-1.2649536,-0.062561035,-9.0,-0.515625,6.828125
1695747909289,0.17211914,-1.3391724,0.05657959,-14.9375,-6.9375,6.640625
1695747909334,0.10571289,-0.99005127,-0.022033691,-10.5625,-9.28125,6.953125
1695747909378,0.34301758,-0.9939575,0.03338623,-5.265625,1.140625,6.5625
1695747909407,0.18579102,-0.9937134,0.08343506,-7.640625,-3.578125,2.421875
1695747909456,0.15258789,-0.9390259,0.032165527,-1.296875,0.875,0.609375
1695747909498,0.18798828,-0.86602783,0.06439209,3.65625,3.015625,-1.328125
1695747909528,0.1430664,-0.88653564,0.06903076,0.375,0.65625,-0.421875
1695747909589,0.12573242,-0.92926025,0.07977295,-3.53125,-0.703125,-2.59375
1695747909617,0.10913086,-0.9163208,0.07318115,-1.21875,1.015625,-1.9375
1695747909683,0.11206055,-0.8674927,0.098083496,1.34375,0.171875,-2.265625
1695747909692,0.08081055,-0.8386841,0.08709717,3.21875,2.0625,-1.328125
1695747909738,0.06225586,-0.81500244,0.10028076,0.796875,2.4375,-2.5625
1695747909768,0.087890625,-0.8699341,0.08807373,1.0,4.34375,-1.890625
1695747909829,0.10229492,-0.87750244,0.09222412,-0.859375,3.984375,-0.125
1695747909843,0.11303711,-0.9229126,0.10784912,0.515625,1.34375,0.59375
1695747909889,0.12939453,-0.9651489,0.121276855,-1.046875,0.65625,2.09375
1695747909934,0.092041016,-0.9981079,0.17816162,1.921875,-0.640625,1.90625
1695747909962,0.014404297,-1.0098267,0.17132568,-0.21875,1.34375,-2.59375
1695747910011,0.025146484,-1.0171509,0.121276855,7.015625,4.703125,-4.6875
1695747910055,0.21875,-1.0459595,-5.493164E-4,4.84375,-1.28125,1.5625
1695747910082,0.092285156,-1.2315063,0.12786865,-3.96875,1.921875,4.546875
1695747910128,-0.08154297,-1.2278442,0.025817871,13.734375,7.734375,-6.9375
1695747910173,0.3786621,-1.079895,0.008728027,8.890625,4.9375,1.359375
1695747910203,0.072265625,-1.1746216,0.06097412,3.25,1.328125,-0.09375
1695747910248,-0.028564453,-1.0105591,-0.11895752,15.640625,12.828125,-5.0
1695747910294,0.2614746,-0.8870239,-0.20196533,9.96875,14.375,-3.421875
1695747910323,0.14404297,-0.93218994,-0.15826416,3.859375,7.234375,-0.28125
1695747910368,0.06616211,-0.987854,-0.105529785,4.078125,5.546875,-1.1875
1695747910413,0.064697266,-0.94488525,-0.07696533,1.8125,2.625,-4.34375
1695747910443,0.04638672,-0.9500122,-0.06378174,-2.640625,0.96875,-7.484375
1695747910489,-0.007080078,-0.8779907,0.012634277,-0.6875,4.609375,-8.0
1695747910548,-0.07080078,-0.78131104,-0.012512207,-2.234375,5.078125,-6.0
1695747910577,0.019042969,-0.76690674,-0.07330322,-2.984375,6.09375,-5.8125
1695747910623,0.048339844,-0.79937744,-0.051330566,-0.65625,2.75,-3.4375
1695747910638,-0.013671875,-0.8753052,0.004333496,-4.609375,-0.546875,1.203125
1695747910683,-0.009033203,-0.9849243,0.022155762,-10.3125,-3.28125,-0.296875
1695747910729,-0.06762695,-1.0298462,0.019226074,-4.0,0.484375,0.015625
1695747910758,-0.05444336,-1.0076294,-0.007385254,1.640625,0.875,0.21875
1695747910803,-0.024658203,-0.9776001,0.0289917,0.671875,0.90625,-0.859375
1695747910863,-0.123046875,-1.0195923,0.031921387,-5.953125,-1.078125,-1.03125
1695747910877,-0.09814453,-1.0840454,-0.043518066,-1.65625,-1.34375,0.859375
1695747910923,0.103515625,-1.0896606,-0.08355713,-3.984375,-0.21875,4.28125
1695747910968,0.14550781,-1.335022,-0.041809082,-10.84375,-4.390625,6.125
1695747910998,0.029541016,-1.3330688,0.015075684,-8.125,-7.609375,2.34375
1695747911045,0.19995117,-1.1890259,-0.043762207,-8.21875,-6.4375,1.015625
1695747911089,0.30908203,-1.0025024,0.023864746,0.765625,-7.1875,3.421875
1695747911117,0.1418457,-0.97320557,0.101989746,-3.4375,-8.59375,1.640625
1695747911163,0.107421875,-1.0403442,0.03314209,-5.109375,-3.5,-1.078125
1695747911208,0.14648438,-0.9180298,0.043151855,2.296875,2.4375,-3.984375
1695747911239,0.072753906,-0.8735962,0.08050537,-0.625,4.4375,-3.328125
1695747911283,0.09326172,-0.80670166,0.055358887,-3.171875,4.15625,-2.828125
1695747911344,0.05517578,-0.76031494,0.08709717,-3.109375,4.890625,-4.6875
1695747911359,0.11767578,-0.81500244,0.07757568,-2.078125,3.15625,-2.375
1695747911405,0.08691406,-0.7942505,0.06341553,-0.5,3.25,1.046875
1695747911433,0.0847168,-0.8118286,0.11175537,-0.3125,3.78125,0.515625
1695747911480,0.022949219,-0.8779907,0.10272217,-0.90625,4.96875,-0.0625
1695747911523,0.08325195,-0.91851807,0.09588623,-1.53125,4.5,-0.453125
1695747911552,0.107421875,-1.0093384,0.09637451,2.9375,3.953125,1.390625
1695747911598,0.091796875,-0.99298096,0.11834717,-2.109375,0.75,1.234375
1695747911644,0.06591797,-1.0161743,0.1564331,2.734375,0.109375,1.515625
1695747911671,0.07519531,-0.9849243,0.11663818,0.6875,-1.625,0.890625
1695747911722,0.03881836,-0.9915161,0.13470459,2.59375,1.4375,-1.0
