# Sensor type: Respeck
# Activity type: Normal walking
# Activity subtype: Normal
# Subject id: s2063346
# Notes: 1.7
timestamp,accel_x,accel_y,accel_z,gyro_x,gyro_y,gyro_z
1695747803012,-0.13916016,-1.0093384,0.20501709,5.5,-1.65625,1.671875
1695747803088,-0.11767578,-1.0186157,0.18792725,6.546875,-0.234375,1.25
1695747803097,-0.111083984,-0.97320557,0.18304443,6.984375,2.03125,0.78125
1695747803134,-0.06689453,-0.9421997,0.19329834,3.546875,1.21875,1.9375
1695747803194,-0.06933594,-0.9627075,0.23504639,0.96875,0.078125,0.984375
1695747803222,-0.095214844,-0.9480591,0.22381592,1.96875,0.875,-1.078125
1695747803251,-0.099365234,-0.93292236,0.21087646,2.34375,2.59375,-2.734375
1695747803342,-0.10913086,-0.927063,0.22528076,2.1875,3.515625,-4.375
1695747803346,-0.122802734,-0.95391846,0.2255249,1.96875,5.125,-5.015625
1695747803374,-0.10571289,-0.96710205,0.21185303,1.90625,6.71875,-6.328125
1695747803432,-0.10253906,-0.97125244,0.23480225,2.046875,7.109375,-5.640625
1695747803461,-0.14868164,-0.9795532,0.25531006,1.484375,5.6875,-6.0625
1695747803523,-0.14550781,-1.0591431,0.18475342,-2.25,3.0,-6.6875
1695747803552,-0.024414062,-1.1045532,0.11395264,4.703125,0.40625,-3.65625
1695747803583,-0.061035156,-1.0630493,0.09857178,7.875,0.84375,-0.140625
1695747803611,-0.16870117,-1.0056763,0.1305542,7.453125,7.453125,-3.640625
1695747803672,-0.061279297,-0.9841919,0.09442139,4.03125,9.796875,-5.4375
1695747803701,-0.014160156,-0.94732666,0.07171631,-1.953125,7.0625,-4.59375
1695747803763,-0.036621094,-0.93878174,0.026306152,-2.21875,3.546875,-2.046875
1695747803792,-0.09814453,-0.94122314,0.029724121,0.546875,5.5625,-2.109375
1695747803822,-0.109375,-0.92633057,0.03338623,0.921875,10.703125,-2.5
1695747803851,-0.072265625,-1.0090942,0.001159668,-2.46875,10.25,-2.734375
1695747803882,-0.092285156,-1.0950317,0.047302246,-5.625,6.765625,-3.6875
1695747803942,-0.10864258,-1.0657349,0.11151123,-1.03125,3.484375,-3.640625
1695747803972,-0.107177734,-0.95513916,0.08685303,1.828125,2.28125,-0.90625
1695747804092,-0.12524414,-0.9182739,0.07293701,2.640625,4.34375,-0.9375
1695747804096,-0.15820312,-0.9138794,0.08392334,8.15625,4.546875,-0.25
1695747804100,-0.13867188,-0.9180298,0.062927246,6.296875,4.453125,-0.21875
1695747804122,-0.14257812,-0.9282837,0.06121826,2.984375,2.453125,1.15625
1695747804182,-0.14331055,-0.9819946,0.06829834,1.734375,-0.078125,2.40625
1695747804211,-0.13916016,-0.9973755,0.10272217,1.65625,-3.046875,3.5
1695747804242,-0.13427734,-0.9939575,0.12884521,0.15625,-4.4375,4.234375
1695747804302,-0.19604492,-0.9805298,0.15203857,0.640625,-5.21875,3.71875
1695747804332,-0.21191406,-0.9507446,0.13397217,0.5625,-3.21875,2.375
1695747804361,-0.22338867,-0.95098877,0.12249756,-0.59375,-2.09375,1.203125
1695747804422,-0.21044922,-0.9729614,0.11444092,-0.296875,-1.703125,2.125
1695747804452,-0.16308594,-0.9898071,0.12835693,-2.109375,-0.53125,4.296875
1695747804543,-0.14111328,-1.0418091,0.10614014,-12.0625,-8.15625,6.34375
1695747804546,-0.15893555,-1.1265259,0.14031982,-9.421875,-8.515625,6.484375
1695747804572,-0.05517578,-1.2835083,0.13690186,-12.40625,0.3125,9.265625
1695747804632,0.005859375,-1.2053833,0.11810303,-6.640625,1.796875,4.125
1695747804662,0.12182617,-0.93878174,0.036071777,5.8125,-0.890625,1.09375
1695747804691,0.045410156,-0.6975708,-0.044006348,13.9375,1.921875,1.671875
1695747804723,0.05444336,-0.6758423,0.01751709,9.703125,5.140625,3.671875
1695747804783,0.17285156,-0.9265747,0.12908936,-8.421875,-2.515625,2.609375
1695747804827,0.051513672,-1.1060181,0.14569092,-11.40625,-8.34375,-2.03125
1695747804842,-0.06762695,-1.1914673,0.10418701,0.0,3.0625,-2.5
1695747804902,-0.018554688,-1.0278931,0.081970215,9.6875,7.1875,-5.53125
1695747804931,0.051757812,-0.90411377,0.07977295,6.4375,7.328125,-3.8125
1695747804963,0.010498047,-0.895813,0.117126465,0.828125,4.9375,-1.1875
1695747805022,-0.018066406,-0.9241333,0.16229248,-0.578125,3.8125,-0.53125
1695747805052,-0.031982422,-0.9175415,0.18353271,-0.28125,5.078125,-2.265625
1695747805085,-0.061035156,-0.95806885,0.15545654,2.125,3.296875,-3.078125
1695747805172,-0.075683594,-0.9558716,0.17254639,5.296875,5.546875,-3.578125
1695747805177,-0.111572266,-0.9307251,0.18035889,5.4375,8.078125,-3.96875
1695747805202,-0.109375,-0.9380493,0.1954956,3.234375,7.84375,-4.640625
1695747805324,-0.096191406,-0.97735596,0.2062378,1.234375,7.546875,-5.515625
1695747805329,-0.008300781,-0.9834595,0.19451904,0.171875,6.84375,-4.109375
1695747805332,-0.08862305,-0.9812622,0.29193115,-9.375,1.890625,-2.34375
1695747805352,-0.33935547,-1.1677856,0.20184326,-9.953125,3.515625,-10.96875
1695747805412,-0.014160156,-1.1734009,0.013122559,-2.171875,6.0625,-5.34375
1695747805443,0.103271484,-1.270813,-0.04107666,-5.5625,1.015625,2.921875
1695747805472,-0.08886719,-1.1502075,0.074401855,12.078125,3.0,-1.875
1695747805531,-0.11694336,-0.7390747,0.09832764,15.609375,17.5625,-8.5625
1695747805563,0.025390625,-0.65704346,-0.04425049,0.703125,21.5625,3.640625
1695747805608,0.08496094,-0.8394165,-0.16192627,-11.875,7.171875,6.71875
1695747805668,-0.057861328,-1.1155396,-0.03302002,-11.4375,3.046875,2.453125
1695747805682,-0.14794922,-1.1482544,0.10272217,-0.8125,3.890625,0.78125
1695747805714,-0.008300781,-1.0230103,0.07196045,7.3125,3.890625,-1.328125
1695747805773,-0.106933594,-0.88726807,0.024841309,6.609375,4.578125,-1.0
1695747805801,-0.08227539,-0.90216064,0.015808105,5.421875,6.3125,-2.5
1695747805832,-0.09472656,-0.91192627,0.053649902,6.3125,3.828125,-1.1875
1695747805922,-0.087890625,-0.9199829,0.027770996,2.34375,2.171875,0.953125
1695747805925,-0.092041016,-0.94610596,0.03289795,-0.3125,-0.953125,3.625
1695747805952,-0.10913086,-0.99542236,0.093688965,-1.046875,-2.71875,3.921875
1695747806011,-0.103027344,-1.0010376,0.12908936,0.65625,-5.546875,3.984375
1695747806043,-0.11303711,-0.97052,0.11004639,-1.078125,-7.421875,3.453125
1695747806072,-0.16357422,-0.9771118,0.11834717,-1.328125,-6.890625,1.421875
1695747806132,-0.2133789,-0.97247314,0.101745605,0.234375,-3.890625,-0.359375
1695747806162,-0.17675781,-0.9973755,0.11199951,-1.671875,-1.953125,-0.59375
1695747806194,-0.15673828,-1.0979614,0.113708496,-14.671875,-10.65625,-0.984375
1695747806252,-0.16601562,-1.1856079,0.13323975,-13.5625,-7.625,-0.453125
1695747806312,-0.033203125,-1.3284302,0.14202881,-15.140625,3.3125,2.5
1695747806316,0.042236328,-1.0591431,0.08660889,-6.640625,-1.625,-1.859375
1695747806373,0.12670898,-0.8399048,-0.0068969727,5.34375,-0.890625,-1.34375
1695747806401,0.068603516,-0.6824341,-0.035705566,11.859375,-0.734375,2.359375
1695747806431,0.14282227,-0.7776489,0.09051514,2.546875,-1.90625,5.78125
1695747806522,0.091552734,-1.0095825,0.18499756,-13.28125,-9.453125,1.0
1695747806525,-0.028564453,-1.1973267,0.1918335,-7.578125,-6.109375,-2.953125
1695747806554,-0.045166016,-1.1331177,0.09832764,2.671875,2.546875,-4.703125
1695747806642,0.045166016,-0.9302368,0.09246826,8.765625,3.703125,-2.4375
1695747806645,0.018310547,-0.85894775,0.1149292,4.015625,2.984375,0.65625
1695747806671,0.018310547,-0.91241455,0.15911865,-3.265625,0.828125,0.953125
1695747806732,0.022216797,-0.9463501,0.20159912,-3.984375,0.203125,0.234375
1695747806762,-0.038085938,-0.954895,0.21746826,0.8125,0.203125,-0.625
1695747806792,-0.07055664,-0.9607544,0.20721436,6.078125,0.359375,-1.75
1695747806822,-0.07299805,-0.94488525,0.2062378,4.96875,2.015625,-2.546875
1695747806882,-0.11450195,-0.91900635,0.20697021,3.875,4.0625,-3.765625
1695747806913,-0.09301758,-0.9180298,0.21380615,1.4375,4.171875,-4.546875
1695747806942,-0.06689453,-0.9470825,0.19525146,2.25,4.609375,-5.25
1695747807002,0.02709961,-0.9483032,0.17962646,1.90625,2.890625,-3.140625
1695747807032,-0.21557617,-0.95977783,0.355896,-6.75,1.71875,-7.515625
1695747807063,-0.34350586,-1.1572876,0.14569092,-5.34375,6.640625,-17.546875
1695747807122,0.07104492,-1.1936646,0.027526855,-5.359375,5.75,-7.46875
1695747807183,0.08666992,-1.3189087,0.011169434,-0.46875,-3.28125,2.453125
1695747807186,-0.14746094,-1.1482544,0.12347412,11.40625,5.484375,-2.953125
1695747807228,-0.13549805,-0.7485962,0.13470459,13.546875,22.515625,-8.28125
1695747807272,0.052734375,-0.6538696,-0.04083252,0.0625,16.875,3.703125
1695747807302,0.09790039,-0.8218384,-0.10626221,-13.40625,2.21875,6.21875
1695747807347,-0.10205078,-1.1397095,0.023132324,-16.765625,2.15625,2.4375
1695747807392,-0.21508789,-1.1853638,0.12664795,3.015625,3.734375,0.15625
1695747807423,-0.049316406,-1.0149536,0.109069824,11.40625,6.125,-3.0625
1695747807542,-0.08129883,-0.84259033,0.07220459,7.28125,2.84375,-0.015625
1695747807545,-0.06933594,-0.88604736,0.07489014,1.328125,-0.671875,2.375
1695747807548,-0.16430664,-0.9338989,0.082458496,1.578125,-1.0,1.3125
1695747807603,-0.12695312,-0.94781494,0.08416748,1.53125,0.109375,1.140625
1695747807632,-0.1262207,-0.97003174,0.093933105,-1.984375,-1.0,2.515625
1695747807662,-0.12890625,-1.005188,0.1437378,-2.34375,-3.75,3.59375
1695747807721,-0.111572266,-0.9751587,0.16815186,-0.9375,-6.359375,3.390625
1695747807752,-0.16625977,-0.9458618,0.17327881,-2.859375,-5.78125,1.3125
1695747807782,-0.18847656,-0.97003174,0.15106201,-3.265625,-3.453125,0.3125
1695747807872,-0.1616211,-0.97662354,0.12884521,-1.046875,-2.71875,1.5625
1695747807875,-0.13110352,-0.9805298,0.15545654,-3.8125,-4.484375,3.578125
1695747807931,-0.13427734,-1.0425415,0.22503662,-9.171875,-11.078125,3.21875
1695747807962,-0.25952148,-1.0667114,0.24310303,-11.484375,-12.75,0.90625
1695747807992,-0.23632812,-1.1257935,0.1552124,-4.75,-6.71875,1.109375
1695747808024,0.07421875,-1.2442017,0.06561279,-8.25,4.265625,1.0625
1695747808082,0.13989258,-1.0542603,0.16400146,-4.984375,-1.859375,-2.40625
1695747808127,0.050048828,-0.8701782,0.04119873,7.796875,-5.09375,-0.265625
1695747808142,0.09692383,-0.6878052,-0.016418457,11.078125,-2.203125,4.578125
1695747808202,0.08935547,-0.8291626,0.15325928,0.546875,-3.3125,5.171875
1695747808263,0.022705078,-1.0745239,0.25091553,-14.6875,-9.359375,0.15625
1695747808267,-0.08227539,-1.1746216,0.18011475,-5.84375,-3.75,-3.65625
1695747808297,-0.052246094,-1.0325317,0.10882568,11.265625,9.6875,-6.171875
1695747808352,0.027832031,-0.8904419,0.15252686,12.828125,11.59375,-3.796875
1695747808411,0.032470703,-0.8987427,0.16107178,3.625,5.59375,-0.171875
1695747808415,0.018066406,-0.9234009,0.17010498,-3.3125,1.34375,0.46875
1695747808473,-0.04321289,-0.92852783,0.2111206,-0.5625,1.796875,0.703125
1695747808503,-0.06689453,-0.9507446,0.21575928,4.375,2.0,0.015625
1695747808532,-0.107177734,-0.9495239,0.22235107,7.03125,3.921875,-1.4375
1695747808592,-0.111328125,-0.9187622,0.2074585,6.875,6.6875,-2.609375
1695747808623,-0.099853516,-0.89849854,0.21478271,5.484375,8.34375,-2.296875
1695747808653,-0.11206055,-0.93096924,0.2255249,2.34375,8.4375,-2.921875
1695747808712,-0.052734375,-0.95513916,0.15789795,4.140625,7.796875,-2.71875
1695747808742,0.07324219,-0.93218994,0.21258545,0.984375,3.046875,0.875
1695747808772,-0.39111328,-1.0462036,0.37469482,-10.375,5.390625,-10.328125
1695747808833,-0.26733398,-1.2229614,0.07562256,-3.890625,11.59375,-15.59375
1695747808862,0.123046875,-1.2490845,0.039489746,-10.328125,10.09375,-3.984375
1695747808892,0.048583984,-1.3269653,0.01751709,1.375,3.203125,1.71875
1695747808952,-0.14697266,-0.9480591,0.20941162,19.28125,11.921875,-6.046875
1695747808983,-0.07470703,-0.6602173,0.11785889,10.609375,23.265625,-6.3125
1695747809013,0.0871582,-0.69732666,-0.07086182,-2.09375,15.296875,5.328125
1695747809072,0.032714844,-0.9505005,-0.0791626,-16.875,-0.25,4.84375
1695747809102,-0.1381836,-1.1990356,0.105895996,-9.328125,3.03125,2.40625
1695747809132,-0.17114258,-1.1531372,0.11517334,8.734375,5.578125,-0.59375
1695747809193,0.0061035156,-0.9036255,0.10028076,11.375,3.0,-0.90625
1695747809222,-0.07885742,-0.8633423,0.06488037,5.546875,-0.546875,4.515625
1695747809256,-0.072021484,-0.91656494,0.07293701,3.890625,-1.234375,3.375
1695747809312,-0.14477539,-0.93927,0.09637451,1.65625,-0.359375,2.171875
1695747809344,-0.1171875,-0.96881104,0.08734131,-0.21875,-1.296875,3.953125
1695747809372,-0.09838867,-0.96661377,0.101501465,-3.296875,-4.453125,5.78125
1695747809432,-0.10986328,-0.9898071,0.14471436,0.15625,-6.0625,5.75
1695747809461,-0.13793945,-0.9624634,0.17181396,-0.140625,-5.796875,3.65625
1695747809492,-0.15649414,-0.94854736,0.15228271,-2.078125,-4.8125,1.375
1695747809552,-0.15332031,-0.9680786,0.11907959,-0.671875,-2.1875,1.484375
1695747809583,-0.123291016,-0.9927368,0.12445068,-1.015625,-0.21875,2.5625
1695747809612,-0.048828125,-1.0613403,0.17474365,-5.5,-9.921875,3.1875
1695747809673,-0.19189453,-1.0842896,0.22357178,-12.890625,-14.296875,2.1875
1695747809703,-0.20288086,-1.2024536,0.168396,-16.65625,-11.4375,1.9375
1695747809761,0.16699219,-1.2581177,0.08807373,-13.71875,-0.875,-1.734375
1695747809764,0.06225586,-1.0037231,0.184021,-1.40625,-0.609375,-6.140625
1695747809822,0.07763672,-0.8255005,-0.022277832,10.6875,-1.96875,-5.90625
1695747809884,0.09790039,-0.6213989,0.04559326,12.203125,-1.09375,1.265625
1695747809928,0.06982422,-0.911438,0.199646,-8.609375,-0.40625,-1.734375
1695747809932,0.04638672,-1.1328735,0.23577881,-14.28125,-4.125,-4.671875
1695747809972,-0.07543945,-1.1436157,0.16400146,-2.890625,1.328125,-4.890625
1695747810002,0.0021972656,-0.9768677,0.15911865,9.40625,7.25,-6.90625
1695747810065,-0.030273438,-0.8621216,0.15179443,11.625,8.265625,-3.359375
1695747810091,0.027832031,-0.8755493,0.14886475,4.484375,4.859375,-1.734375
1695747810152,0.016113281,-0.9307251,0.18695068,1.078125,3.84375,0.53125
1695747810181,-0.017822266,-0.9439087,0.20477295,0.453125,1.515625,0.484375
1695747810213,-0.095703125,-0.9690552,0.23040771,3.15625,1.25,-0.34375
1695747810245,-0.12036133,-0.94903564,0.2218628,5.40625,4.796875,-2.1875
1695747810302,-0.087890625,-0.9163208,0.2033081,7.078125,6.515625,-2.953125
1695747810332,-0.079833984,-0.9368286,0.215271,5.078125,6.390625,-1.8125
1695747810393,-0.095703125,-0.9483032,0.20916748,2.828125,4.25,-2.96875
1695747810422,0.0012207031,-0.9602661,0.1696167,5.109375,1.890625,-0.078125
1695747810451,-0.14160156,-0.9595337,0.3287964,-3.09375,-0.375,-1.578125
1695747810482,-0.3803711,-1.0393677,0.30926514,1.125,9.34375,-14.125
1695747810543,-0.20898438,-1.0120239,0.13348389,-4.21875,15.984375,-15.6875
1695747810602,0.061279297,-1.1306763,0.121276855,-11.328125,3.0,-6.390625
1695747810605,0.0021972656,-1.33844,0.07928467,-15.71875,-4.734375,1.59375
1695747810662,-0.07885742,-1.1355591,0.08001709,10.796875,3.71875,2.78125
1695747810692,-0.15600586,-0.7017212,0.137146,18.84375,23.03125,-8.703125
1695747810752,0.08251953,-0.80548096,0.00970459,0.28125,17.359375,3.21875
1695747810785,0.13549805,-0.94195557,-0.03717041,-19.96875,-1.65625,6.21875
1695747810812,-0.14868164,-1.1531372,0.09222412,-9.90625,-6.625,2.328125
1695747810842,-0.19165039,-1.0930786,0.13909912,7.078125,2.328125,1.1875
1695747810903,-0.0073242188,-0.8648071,0.085876465,7.59375,0.03125,0.71875
1695747810933,-0.107177734,-0.9006958,0.08660889,2.1875,-3.734375,2.328125
1695747810962,-0.12451172,-0.95098877,0.081726074,5.65625,-2.953125,1.9375
1695747811022,-0.10839844,-0.93829346,0.08685303,3.359375,-2.15625,1.03125
1695747811083,-0.14135742,-0.93414307,0.101257324,2.203125,-1.921875,2.21875
1695747811086,-0.1472168,-0.9678345,0.12567139,2.9375,-2.484375,4.171875
1695747811143,-0.10205078,-0.97198486,0.14202881,3.53125,-4.078125,3.71875
1695747811172,-0.13671875,-0.9619751,0.15789795,3.171875,-4.484375,3.546875
1695747811202,-0.14331055,-0.9793091,0.1708374,1.921875,-5.015625,3.03125
1695747811232,-0.15039062,-0.9956665,0.16351318,0.484375,-5.65625,3.015625
1695747811292,-0.17504883,-0.97198486,0.15765381,0.921875,-5.40625,3.703125
1695747811322,-0.13354492,-0.98883057,0.16571045,1.671875,-6.421875,5.78125
1695747811352,-0.08129883,-1.0164185,0.15740967,-2.203125,-10.265625,6.71875
1695747811412,-0.20922852,-1.1082153,0.21966553,-9.0625,-7.28125,2.140625
1695747811502,-0.17602539,-1.2131958,0.08319092,-11.953125,-4.546875,-0.09375
1695747811507,0.1315918,-1.2422485,0.089538574,-6.03125,1.4375,-2.546875
1695747811531,0.17089844,-0.97320557,0.05999756,-0.546875,-4.828125,-3.421875
1695747811562,0.076171875,-0.7647095,-0.047424316,12.453125,-6.515625,-0.390625
1695747811592,0.0126953125,-0.7866821,0.054626465,-0.234375,-3.84375,1.171875
1695747811652,-0.0017089844,-1.0393677,0.18426514,-6.21875,-1.578125,-4.234375
1695747811682,-0.018310547,-1.0613403,0.12445068,-2.171875,0.890625,-6.6875
1695747811712,-0.059326172,-1.0122681,0.08538818,3.578125,9.34375,-6.078125
1695747811772,0.005126953,-0.97003174,0.07489014,4.8125,11.140625,-5.21875
1695747811803,0.016845703,-0.91607666,0.094177246,1.5,11.09375,-3.03125
1695747811832,0.013183594,-0.9319458,0.124694824,-0.359375,7.671875,-0.640625
1695747811892,-0.037109375,-0.9456177,0.14691162,1.921875,6.484375,-1.3125
1695747811923,-0.053955078,-0.9417114,0.15985107,3.125,8.015625,-1.171875
1695747811952,-0.056884766,-0.9619751,0.1473999,3.65625,7.140625,-1.21875
1695747812012,-0.07763672,-0.9668579,0.16644287,3.828125,7.359375,-2.109375
1695747812072,-0.1015625,-0.95196533,0.16815186,3.9375,7.1875,-1.703125
1695747812076,-0.09790039,-0.9456177,0.17596436,1.90625,5.984375,-2.375
1695747812133,-0.110839844,-0.9570923,0.17132568,1.65625,6.84375,-3.296875
1695747812163,-0.09106445,-0.9793091,0.17474365,2.578125,8.609375,-3.375
1695747812191,-0.067871094,-0.97369385,0.16937256,3.046875,7.671875,-1.671875
1695747812237,-0.17895508,-0.9627075,0.23504639,-0.875,4.5625,-4.234375
1695747812313,-0.29760742,-1.1138306,0.19476318,-2.65625,7.78125,-10.390625
1695747812316,-0.030273438,-1.1130981,0.09320068,-1.390625,5.046875,-7.796875
1695747812372,-0.02368164,-1.1838989,0.066589355,-8.28125,0.703125,-2.296875
1695747812433,-0.09814453,-1.1653442,0.08026123,4.125,0.3125,0.28125
1695747812437,-0.14501953,-0.89312744,0.11248779,15.296875,11.734375,-6.28125
1695747812492,-0.029052734,-0.73028564,-0.0032348633,5.796875,18.890625,-3.28125
1695747812523,0.07788086,-0.78790283,-0.094055176,-8.390625,8.71875,4.453125
1695747812552,-7.324219E-4,-1.0715942,-0.019592285,-19.78125,-2.78125,3.015625
1695747812612,-0.15698242,-1.2127075,0.13201904,-5.453125,-1.296875,-0.484375
1695747812643,-0.087402344,-1.0508423,0.12884521,5.0,-1.546875,-3.625
1695747812703,-0.10107422,-0.8399048,0.08709717,5.859375,-0.734375,-2.046875
1695747812708,-0.13989258,-0.8621216,0.050476074,1.609375,0.03125,0.5625
1695747812762,-0.12841797,-0.9031372,0.04876709,-0.0625,0.671875,-1.609375
1695747812792,-0.16699219,-0.956604,0.08001709,-2.296875,0.3125,-1.34375
1695747812822,-0.15917969,-0.9849243,0.11981201,-2.65625,-1.53125,-0.09375
1695747812883,-0.12451172,-0.9866333,0.15081787,-3.375,-3.5625,1.0
1695747812912,-0.1340332,-0.9710083,0.17547607,-1.984375,-4.8125,2.46875
1695747812942,-0.18530273,-0.95269775,0.17572021,-1.640625,-4.21875,2.6875
1695747813004,-0.20141602,-0.9702759,0.17474365,-0.46875,-3.0625,2.3125
1695747813033,-0.19042969,-0.95098877,0.168396,-2.921875,-3.578125,1.921875
1695747813062,-0.19384766,-0.97003174,0.18011475,-3.828125,-4.5625,3.234375
1695747813122,-0.17333984,-0.9961548,0.1918335,-2.765625,-4.859375,5.046875
1695747813151,-0.14453125,-0.9793091,0.23162842,-6.234375,-7.515625,5.4375
1695747813183,-0.20410156,-1.052063,0.19500732,-15.15625,-15.390625,4.671875
1695747813243,-0.27124023,-1.1309204,0.1942749,-8.828125,-9.78125,0.03125
1695747813272,-0.001953125,-1.2754517,0.12200928,-11.96875,-1.265625,-0.59375
1695747813302,0.18920898,-1.0632935,0.1408081,-4.78125,-2.734375,0.09375
1695747813348,0.052001953,-0.8587036,0.05267334,5.296875,-10.1875,1.109375
1695747813392,0.055419922,-0.7073364,-0.0064086914,10.765625,-8.921875,4.53125
1695747813422,0.004638672,-0.86920166,0.14959717,-2.171875,-4.65625,1.515625
1695747813482,-0.03564453,-1.0818481,0.23968506,-8.28125,-4.265625,-4.1875
1695747813512,-0.0690918,-1.0767212,0.15789795,-2.421875,0.28125,-4.0625
1695747813542,-0.05444336,-1.024231,0.14764404,6.28125,7.65625,-5.671875
1695747813602,-0.06298828,-0.93829346,0.1473999,9.078125,11.40625,-4.15625
1695747813633,-4.8828125E-4,-0.8779907,0.13641357,4.5625,9.40625,-1.625
1695747813662,-0.028076172,-0.91973877,0.16156006,1.3125,7.3125,0.0625
1695747813723,-0.06958008,-0.96661377,0.20477295,1.15625,6.234375,-0.09375
1695747813752,-0.10498047,-0.97735596,0.2164917,3.140625,7.015625,-1.09375
1695747813783,-0.118652344,-0.9627075,0.18841553,6.0,8.078125,-1.828125
1695747813841,-0.123535156,-0.93634033,0.17889404,6.890625,9.765625,-2.359375
1695747813872,-0.10961914,-0.93878174,0.19915771,5.140625,8.53125,-2.0625
1695747813902,-0.10107422,-0.9365845,0.20013428,2.125,6.6875,-1.171875
1695747813962,-0.13330078,-0.95318604,0.22332764,2.40625,5.78125,-1.640625
1695747813992,-0.12792969,-0.96539307,0.21234131,0.96875,7.140625,-2.90625
1695747814022,-0.107177734,-0.96881104,0.2140503,3.25,6.265625,-1.890625
1695747814083,-0.22607422,-0.97247314,0.27850342,-3.3125,5.90625,-5.65625
1695747814113,-0.29125977,-1.0352173,0.25286865,-1.90625,10.21875,-10.03125
1695747814144,-0.07373047,-1.0535278,0.14398193,-1.390625,7.984375,-9.015625
1695747814172,-0.052001953,-1.140686,0.09832764,-9.734375,4.734375,-0.96875
1695747814221,-0.056396484,-1.2608032,0.08074951,0.40625,0.03125,2.734375
1695747814263,-0.140625,-0.9734497,0.18328857,15.375,9.890625,-4.453125
1695747814293,-0.05859375,-0.81866455,0.12347412,11.015625,15.953125,-4.609375
1695747814352,0.024169922,-0.7715454,-0.0012817383,3.390625,12.703125,3.265625
1695747814382,-0.052001953,-0.8406372,-0.057434082,-12.328125,5.953125,2.046875
1695747814413,-0.13916016,-1.1345825,0.066589355,-11.75,6.359375,-1.171875
1695747814472,-0.16040039,-1.1450806,0.15301514,3.578125,7.078125,-1.015625
1695747814502,-0.05053711,-0.9819946,0.09246826,8.578125,6.53125,-1.25
1695747814531,-0.06982422,-0.87750244,0.078063965,7.71875,2.46875,2.671875
1695747814593,-0.12475586,-0.91534424,0.08465576,2.859375,1.859375,2.484375
1695747814622,-0.16552734,-0.94073486,0.09979248,2.09375,1.65625,2.140625
1695747814653,-0.15454102,-0.9624634,0.09686279,1.578125,4.734375,2.140625
1695747814712,-0.10864258,-0.9824829,0.11907959,1.859375,3.015625,3.65625
1695747814742,-0.0859375,-0.95977783,0.12860107,1.890625,-0.09375,5.703125
1695747814772,-0.13085938,-0.9512329,0.16619873,1.75,-2.0625,3.65625
1695747814862,-0.1652832,-0.9483032,0.13250732,0.703125,-1.234375,3.1875
1695747814866,-0.14941406,-0.9692993,0.14178467,0.328125,-1.328125,2.6875
1695747814891,-0.16430664,-0.9932251,0.17230225,-0.34375,-2.296875,2.953125
1695747814953,-0.1574707,-0.9932251,0.15447998,-1.546875,-2.546875,2.4375
1695747814998,-0.15039062,-0.98883057,0.17840576,0.015625,-3.421875,3.5
1695747815012,-0.15625,-0.98321533,0.18377686,-4.609375,-6.765625,3.921875
1695747815072,-0.19628906,-1.0437622,0.18597412,-6.1875,-6.765625,2.9375
1695747815104,-0.18041992,-1.1255493,0.13690186,-4.125,-1.703125,2.40625
1695747815132,0.06689453,-1.2197876,0.10662842,-10.03125,-1.65625,3.328125
1695747815193,-0.009521484,-1.1035767,0.20306396,-6.5625,-1.890625,1.71875
1695747815222,0.061035156,-0.9768677,0.03363037,1.6875,-6.84375,0.109375
1695747815252,-0.0021972656,-0.7449341,-0.0012817383,8.625,-0.21875,1.953125
1695747815313,0.08911133,-0.800354,0.020690918,5.6875,0.84375,1.9375
1695747815343,0.1616211,-0.9314575,0.11541748,-5.90625,-1.640625,0.640625
1695747815402,-0.016601562,-1.0669556,0.20159912,-14.0,-0.921875,-3.046875
1695747815432,-0.06225586,-1.1370239,0.15301514,-5.890625,3.9375,-6.296875
1695747815492,-0.020751953,-0.98443604,0.10247803,6.609375,8.8125,-8.3125
1695747815495,0.02709961,-0.8880005,0.08856201,8.453125,6.65625,-3.96875
1695747815552,-0.010253906,-0.91656494,0.14715576,-0.390625,5.125,-1.765625
1695747815612,-0.009521484,-0.9314575,0.19647217,-1.390625,4.953125,-1.90625
1695747815615,-0.038085938,-0.94317627,0.17962646,-1.859375,5.765625,-1.71875
1695747815642,-0.06616211,-0.94732666,0.17840576,1.3125,5.421875,-1.265625
1695747815702,-0.08520508,-0.9714966,0.20550537,5.3125,7.59375,-0.890625
1695747815732,-0.10083008,-0.94659424,0.18084717,3.75,7.546875,-2.484375
1695747815762,-0.10888672,-0.9487915,0.18157959,5.53125,8.21875,-1.859375
1695747815822,-0.13452148,-0.9480591,0.19891357,4.421875,8.375,-2.296875
1695747815852,-0.122558594,-0.94781494,0.18475342,4.125,9.515625,-3.0625
1695747815913,-0.11035156,-0.9614868,0.19232178,3.078125,10.375,-3.359375
1695747815957,-0.087402344,-0.97003174,0.18084717,3.984375,9.671875,-3.234375
1695747815972,-0.15649414,-0.95758057,0.26263428,1.71875,8.4375,-4.453125
1695747816003,-0.27416992,-1.0652466,0.26239014,-3.859375,11.03125,-10.078125
1695747816062,-0.068359375,-1.117981,0.12860107,0.265625,8.4375,-9.515625
1695747816091,-0.030029297,-1.1616821,0.0836792,-3.734375,2.875,-2.5
1695747816156,-0.040527344,-1.2632446,0.07196045,2.609375,-0.875,0.984375
1695747816182,-0.09667969,-0.9951782,0.11419678,8.109375,10.984375,-6.5625
1695747816212,-0.08569336,-0.78741455,0.074157715,8.40625,20.1875,-6.25
1695747816242,0.06616211,-0.77178955,-0.04522705,-0.6875,12.125,3.5
1695747816302,0.021484375,-0.94781494,-0.04083252,-16.125,0.375,0.078125
1695747816332,-0.07397461,-1.1619263,0.06341553,-7.46875,-2.109375,0.71875
1695747816362,-0.12011719,-1.0598755,0.13861084,2.0,-4.671875,-1.171875
1695747816423,-0.063964844,-0.91973877,0.0770874,1.390625,-3.078125,-1.921875
1695747816452,-0.11450195,-0.87457275,0.07684326,3.921875,-4.0,1.59375
1695747816481,-0.09765625,-0.9290161,0.06390381,3.203125,-5.5,0.984375
1695747816543,-0.14013672,-0.9314575,0.078552246,2.203125,-4.09375,0.875
1695747816572,-0.1381836,-0.95269775,0.09710693,3.265625,-3.546875,2.671875
1695747816632,-0.13500977,-0.9585571,0.12005615,3.875,-4.0,3.9375
1695747816662,-0.12109375,-0.99786377,0.13665771,0.65625,-7.03125,3.75
1695747816723,-0.1430664,-0.98223877,0.15057373,0.96875,-8.234375,2.875
1695747816728,-0.1809082,-0.97491455,0.15203857,1.359375,-6.53125,2.875
1695747816782,-0.1640625,-0.96661377,0.13885498,0.234375,-7.15625,2.59375
1695747816812,-0.18701172,-0.9612427,0.15716553,0.9375,-5.21875,1.375
1695747816842,-0.17993164,-0.9546509,0.15423584,1.296875,-3.765625,1.671875
1695747816903,-0.17236328,-0.96295166,0.15618896,-0.796875,-2.28125,1.921875
1695747816932,-0.18603516,-1.0027466,0.17449951,-4.375,-6.765625,0.46875
1695747816962,-0.23095703,-1.1016235,0.19403076,-9.96875,-6.25,-1.53125
1695747817023,-0.12988281,-1.2005005,0.15325928,-9.890625,-3.9375,0.015625
1695747817053,0.014404297,-1.2385864,0.1395874,-9.53125,1.625,-1.3125
1695747817082,0.030761719,-1.0088501,0.113220215,-0.203125,-5.375,-2.90625
1695747817112,0.048339844,-0.8057251,-0.011047363,5.15625,-7.046875,-0.921875
1695747817172,-0.044677734,-0.7022095,-0.023498535,7.609375,0.0625,0.09375
1695747817203,0.1274414,-0.9151001,0.093688965,0.84375,-1.140625,0.6875
1695747817233,0.07446289,-1.0654907,0.13568115,-12.53125,-7.8125,-1.765625
1695747817292,-0.110839844,-1.1223755,0.14959717,-2.796875,-4.265625,-3.0
1695747817322,-0.13793945,-1.0637817,0.09613037,5.734375,5.609375,-6.140625
1695747817351,0.024414062,-0.9277954,0.074645996,6.0625,7.0,-4.515625
1695747817443,-0.029052734,-0.89678955,0.10858154,-1.9375,2.96875,-0.640625
1695747817447,-0.051513672,-0.94195557,0.15350342,-1.671875,2.34375,0.75
1695747817472,-0.060058594,-0.9487915,0.17425537,1.96875,4.21875,0.921875
1695747817550,-0.049804688,-0.942688,0.16864014,2.78125,2.078125,1.046875
1695747817593,-0.1081543,-0.96954346,0.1749878,3.09375,3.140625,1.3125
1695747817597,-0.12939453,-0.9365845,0.16693115,3.953125,4.875,0.078125
1695747817651,-0.12207031,-0.92559814,0.18035889,2.78125,6.0625,-0.6875
1695747817682,-0.1508789,-0.9221802,0.19671631,0.65625,6.171875,-2.984375
1695747817712,-0.14404297,-0.93878174,0.18963623,-0.359375,7.140625,-5.1875
1695747817772,-0.09301758,-0.95147705,0.16619873,-0.203125,7.484375,-3.8125
1695747817803,-0.07885742,-0.94000244,0.21795654,-1.265625,4.109375,-3.375
1695747817832,-0.33666992,-1.0864868,0.2670288,-11.4375,3.578125,-8.796875
1695747817891,-0.1484375,-1.2044067,0.09588623,-2.953125,6.0,-11.421875
1695747817924,-0.012451172,-1.2024536,0.090270996,-1.921875,5.140625,-4.84375
1695747817952,-0.095703125,-1.1775513,0.10687256,6.828125,2.34375,-1.796875
1695747818013,-0.12109375,-0.94488525,0.16351318,9.0625,12.390625,-6.859375
1695747818042,-0.06542969,-0.7944946,0.074157715,3.125,15.0625,-1.9375
1695747818072,0.020019531,-0.7317505,-0.031799316,-11.75,9.546875,2.09375
1695747818132,-0.07739258,-1.0042114,0.0072631836,-20.859375,1.59375,1.15625
1695747818164,-0.15625,-1.147522,0.08099365,-6.828125,1.609375,-1.328125
1695747818192,-0.09643555,-1.0281372,0.13079834,5.875,2.734375,0.734375
1695747818252,-0.099365234,-0.96343994,0.13470459,7.109375,2.546875,0.484375
1695747818285,-0.15771484,-0.89508057,0.13421631,5.0625,1.234375,1.59375
1695747818312,-0.11352539,-0.89556885,0.113464355,0.09375,-1.359375,1.5625
1695747818373,-0.16699219,-0.94195557,0.13421631,-1.296875,-1.796875,2.78125
1695747818418,-0.16503906,-0.96710205,0.14324951,-4.328125,-0.578125,2.4375
1695747818432,-0.13769531,-0.98883057,0.16937256,-2.921875,-2.640625,2.4375
1695747818492,-0.1315918,-0.96173096,0.19476318,2.25,-5.171875,4.09375
1695747818522,-0.16699219,-0.9258423,0.20013428,1.421875,-6.65625,4.28125
1695747818552,-0.20483398,-0.9421997,0.17962646,1.40625,-5.171875,4.3125
1695747818582,-0.2019043,-0.9570923,0.18060303,-0.765625,-3.609375,2.625
1695747818642,-0.19140625,-0.9741821,0.19915771,-1.125,-4.46875,2.421875
1695747818733,-0.23168945,-0.9788208,0.19818115,-1.078125,-3.8125,4.3125
1695747818737,-0.18017578,-1.0032349,0.20843506,-1.375,-4.375,3.28125
1695747818762,-0.19091797,-1.0132446,0.18743896,-7.59375,-8.4375,2.40625
1695747818793,-0.2397461,-1.06427,0.20697021,-3.734375,-3.984375,-0.109375
1695747818852,-0.115722656,-1.1677856,0.17034912,-6.9375,-0.109375,0.890625
1695747818882,0.04272461,-1.147522,0.13739014,-6.671875,0.5625,-1.078125
1695747818911,4.8828125E-4,-1.0186157,0.15423584,-0.78125,-0.125,-2.234375
1695747818974,-0.0078125,-0.803772,0.0524292,10.84375,0.0625,-0.515625
1695747819001,0.12670898,-0.7293091,0.043640137,9.453125,1.15625,2.234375
1695747819031,0.06640625,-0.89068604,0.19940186,-3.953125,-2.671875,1.953125
1695747819091,-0.12524414,-1.144104,0.25653076,-10.921875,-3.546875,-5.078125
1695747819122,-0.06347656,-1.1013794,0.1281128,3.84375,3.421875,-5.515625
1695747819168,-0.015625,-0.9920044,0.11859131,4.484375,9.25,-6.59375
1695747819244,-0.02709961,-0.9373169,0.12957764,4.640625,7.8125,-2.296875
1695747819248,-0.044921875,-0.90948486,0.16082764,1.078125,6.84375,-2.078125
1695747819272,-0.040283203,-0.9143677,0.17059326,1.6875,5.390625,-0.390625
1695747819303,-0.06274414,-0.92266846,0.18695068,1.5,4.921875,0.03125
1695747819362,-0.104003906,-0.95635986,0.19403076,3.5,4.84375,0.0625
1695747819392,-0.11425781,-0.95684814,0.18670654,5.125,6.234375,-0.171875
1695747819422,-0.12768555,-0.9517212,0.19403076,5.96875,7.140625,-0.375
1695747819485,-0.11767578,-0.9385376,0.19647217,4.75,6.59375,-0.484375
1695747819514,-0.1472168,-0.9356079,0.20062256,3.59375,7.21875,-0.625
1695747819571,-0.16259766,-0.9612427,0.21429443,3.109375,8.4375,-2.390625
1695747819602,-0.12841797,-0.9314575,0.184021,5.734375,10.859375,-1.5
1695747819631,-0.13769531,-0.91485596,0.20428467,2.3125,11.078125,-1.296875
1695747819664,-0.3400879,-1.0125122,0.2670288,-2.15625,14.671875,-9.140625
1695747819722,-0.14379883,-1.1314087,0.14422607,0.0625,18.15625,-10.140625
1695747819752,-0.079833984,-1.1819458,0.09979248,-6.453125,16.578125,-2.90625
1695747819782,-0.036376953,-1.2271118,0.04925537,1.34375,9.90625,1.515625
1695747819844,-0.09423828,-1.0654907,0.113708496,12.5625,16.484375,-3.65625
1695747819872,-0.08911133,-0.81817627,0.10614014,7.796875,24.78125,-6.703125
1695747819902,0.072265625,-0.8196411,-0.012268066,2.875,21.234375,2.6875
1695747819993,0.0048828125,-0.86968994,-0.03717041,-12.078125,11.234375,1.0625
1695747820023,-0.10131836,-1.1072388,0.07342529,-9.515625,7.0625,-2.0
1695747820026,-0.091796875,-1.0982056,0.1329956,-0.84375,4.71875,-2.53125
1695747820051,-0.05859375,-0.9819946,0.101501465,0.6875,1.015625,-3.4375
1695747820111,-0.096191406,-0.8899536,0.094177246,4.828125,-0.609375,-0.546875
1695747820143,-0.115722656,-0.9307251,0.09075928,2.578125,-0.46875,-0.0625
1695747820172,-0.11401367,-0.93756104,0.09613037,2.765625,-1.859375,0.59375
1695747820233,-0.13574219,-0.93218994,0.10638428,-0.046875,-2.171875,1.0
1695747820262,-0.13745117,-0.9470825,0.13641357,-1.09375,-1.734375,2.671875
1695747820292,-0.14111328,-0.98223877,0.16351318,0.890625,-4.21875,2.46875
1695747820353,-0.15161133,-0.9734497,0.17059326,2.703125,-6.0625,2.25
1695747820383,-0.16113281,-0.9541626,0.17254639,1.9375,-4.921875,2.328125
1695747820412,-0.1628418,-0.96832275,0.16497803,0.0,-6.15625,1.9375
1695747820472,-0.15454102,-0.9573364,0.18035889,-0.578125,-7.734375,1.4375
1695747820502,-0.16723633,-0.9668579,0.19769287,-1.734375,-10.171875,2.84375
1695747820532,-0.18017578,-0.95635986,0.20404053,-1.75,-9.609375,4.234375
1695747820591,-0.17407227,-0.97662354,0.21478271,-3.75,-8.859375,4.375
1695747820653,-0.17700195,-1.0444946,0.16986084,-13.171875,-18.578125,3.015625
1695747820656,-0.20336914,-1.11969,0.21820068,-10.65625,-16.859375,0.0625
1695747820743,-0.10180664,-1.2837524,0.19671631,-17.375,-8.859375,2.671875
1695747820747,0.06323242,-1.1599731,0.16937256,-8.75,-9.578125,1.15625
1695747820802,0.08984375,-0.8838501,0.09539795,4.421875,-14.5625,1.546875
1695747820833,-0.0014648438,-0.69732666,-0.04449463,10.09375,-10.21875,3.6875
1695747820861,0.02368164,-0.8206177,0.070251465,-0.15625,-2.0,2.21875
1695747820893,0.0029296875,-1.0877075,0.2177124,-9.375,0.640625,-2.8125
1695747820951,0.03466797,-1.1035767,0.15374756,-5.96875,-3.234375,-2.6875
1695747820982,-0.060791016,-1.005188,0.1473999,-0.34375,0.671875,-3.078125
1695747821011,-0.064453125,-0.9487915,0.1305542,7.8125,2.765625,-2.6875
1695747821136,-0.03173828,-0.86553955,0.1383667,8.0,5.84375,-2.046875
1695747821140,-0.026367188,-0.89556885,0.1564331,2.65625,3.125,-0.59375
1695747821192,-0.040283203,-0.94903564,0.20941162,3.265625,4.703125,0.1875
1695747821195,-0.067871094,-0.9783325,0.20037842,5.6875,4.046875,0.375
1695747821223,-0.07397461,-0.9585571,0.1918335,6.65625,3.203125,0.234375
1695747821282,-0.10498047,-0.9492798,0.18670654,6.65625,5.0,-0.703125
1695747821312,-0.11376953,-0.9348755,0.18817139,6.5625,7.234375,-0.6875
1695747821343,-0.115722656,-0.9373169,0.19696045,5.359375,6.28125,-1.453125
1695747821372,-0.13256836,-0.9590454,0.18719482,2.390625,5.78125,-3.328125
1695747821432,-0.09399414,-0.96881104,0.1774292,0.875,7.828125,-3.828125
1695747821462,-0.055664062,-0.972229,0.19036865,1.484375,6.140625,-2.6875
1695747821492,-0.16137695,-0.9812622,0.29437256,-3.046875,1.359375,-4.40625
1695747821522,-0.30078125,-1.098938,0.24920654,-5.609375,6.4375,-10.375
1695747821583,-0.06542969,-1.0581665,0.11444092,2.0625,2.96875,-8.5625
1695747821627,4.8828125E-4,-1.0918579,0.09954834,-5.671875,0.015625,-1.140625
1695747821642,-0.068359375,-1.2012329,0.10418701,1.359375,-2.9375,2.53125
1695747821702,-0.15063477,-0.99542236,0.14398193,9.765625,6.96875,-5.140625
1695747821731,-0.084228516,-0.85284424,0.07611084,10.859375,11.40625,-4.390625
1695747821793,0.030517578,-0.84161377,-0.024230957,7.15625,10.71875,1.125
1695747821822,-0.025390625,-0.8526001,-0.054992676,-3.109375,6.546875,2.15625
1695747821851,-0.05834961,-1.0488892,0.019226074,-11.484375,0.734375,2.21875
1695747821912,-0.10839844,-1.1526489,0.12371826,-2.4375,-1.84375,-0.390625
1695747821942,-0.09863281,-1.0151978,0.08270264,4.9375,-5.421875,1.453125
1695747821972,-0.063964844,-0.9138794,0.03656006,6.9375,-6.1875,1.328125
1695747822002,-0.125,-0.91119385,0.032409668,4.625,-3.90625,1.3125
1695747822062,-0.11230469,-0.91778564,0.03265381,4.921875,-3.9375,0.421875
1695747822092,-0.1184082,-0.9314575,0.049987793,1.078125,-4.65625,1.328125
1695747822123,-0.12207031,-0.96661377,0.08050537,-0.4375,-4.96875,2.03125
1695747822183,-0.14477539,-0.9780884,0.10784912,0.140625,-4.828125,2.140625
1695747822212,-0.12109375,-0.9939575,0.117126465,1.125,-5.578125,3.390625
1695747822244,-0.14501953,-0.9612427,0.12640381,1.421875,-6.78125,1.703125
1695747822303,-0.17138672,-0.9793091,0.12567139,-0.0625,-5.71875,1.171875
1695747822332,-0.13452148,-0.98443604,0.13372803,-1.0625,-5.4375,1.53125
1695747822393,-0.11816406,-0.96710205,0.12982178,-3.046875,-8.109375,2.609375
1695747822422,-0.1352539,-0.975647,0.15057373,-1.296875,-10.421875,4.171875
1695747822453,-0.13330078,-0.98516846,0.15594482,0.0625,-10.375,4.671875
1695747822483,-0.13330078,-1.0039673,0.19769287,-0.578125,-12.390625,5.46875
1695747822543,-0.14453125,-1.0691528,0.15667725,-9.28125,-17.515625,3.8125
1695747822572,-0.17895508,-1.1184692,0.13153076,-4.5625,-15.578125,1.21875
1695747822602,-0.028564453,-1.2122192,0.12420654,-6.015625,-8.03125,2.265625
1695747822662,0.05859375,-1.0535278,0.1239624,-7.28125,-9.859375,2.59375
1695747822693,0.033691406,-0.89923096,0.0072631836,-2.96875,-16.03125,1.46875
1695747822737,0.047607422,-0.7625122,-0.03765869,3.96875,-13.5,4.203125
1695747822782,0.049560547,-0.8430786,0.06439209,1.59375,-9.625,1.859375
1695747822814,0.07299805,-1.0234985,0.1317749,-6.71875,-10.734375,-0.71875
1695747822842,0.030517578,-1.0984497,0.11907959,-6.296875,-12.328125,-1.828125
1695747822904,-0.0024414062,-1.052063,0.109069824,0.90625,-4.546875,-1.375
1695747822932,-0.041259766,-0.9932251,0.11248779,2.515625,-2.484375,-3.171875
1695747822961,0.029296875,-0.9319458,0.08807373,4.71875,-4.640625,-0.375
1695747822993,0.036376953,-0.89556885,0.10784912,1.015625,-5.34375,-0.171875
1695747823052,0.010253906,-0.9558716,0.15985107,1.078125,-6.140625,1.859375
1695747823082,-0.017578125,-0.9522095,0.16888428,1.375,-7.234375,1.28125
1695747823112,-0.03100586,-0.9685669,0.14666748,2.5,-7.984375,0.875
1695747823172,-0.03149414,-0.954895,0.15130615,4.984375,-7.734375,-0.0625
1695747823203,-0.072265625,-0.9456177,0.16204834,2.84375,-7.71875,-0.875
1695747823232,-0.05834961,-0.9512329,0.16912842,1.484375,-8.03125,-1.59375
1695747823292,-0.07543945,-0.99102783,0.17645264,-2.484375,-4.703125,-3.40625
1695747823323,-0.05810547,-0.9741821,0.15911865,-1.203125,-5.34375,-3.3125
1695747823382,-0.080566406,-0.9602661,0.16864014,-3.046875,-4.90625,-5.0
1695747823412,-0.10668945,-0.9776001,0.21356201,-1.234375,-3.25,-5.5625
1695747823442,-0.17993164,-1.0142212,0.24285889,-5.03125,-1.34375,-10.078125
1695747823502,-0.076416016,-1.0488892,0.16522217,-7.78125,-4.046875,-10.453125
1695747823534,-0.055419922,-1.0401001,0.14569092,-7.75,-9.59375,-5.5
1695747823577,-0.01928711,-1.1575317,0.14764404,-8.46875,-13.109375,-2.53125
1695747823622,-0.06298828,-1.1160278,0.10223389,0.0625,-10.515625,-0.40625
1695747823652,-0.0769043,-0.93829346,0.14105225,5.46875,-4.8125,-6.359375
1695747823681,-0.029296875,-0.87701416,0.12762451,4.234375,-5.8125,-3.421875
1695747823743,0.020507812,-0.800354,0.04510498,-1.703125,-9.015625,-0.453125
1695747823772,-0.030029297,-0.861145,-0.004699707,-12.109375,-10.46875,2.71875
1695747823863,-0.09350586,-1.0654907,0.02166748,-16.46875,-12.890625,1.4375
1695747823867,-0.10620117,-1.1831665,0.073913574,-6.890625,-15.921875,-1.296875
1695747823892,-0.08081055,-1.0584106,0.11639404,4.046875,-18.390625,-0.578125
1695747823922,-0.053222656,-0.8994751,0.11883545,6.234375,-17.234375,1.84375
1695747823953,-0.125,-0.87164307,0.11273193,1.75,-15.296875,3.8125
1695747824042,-0.100097656,-0.9302368,0.06829834,0.46875,-16.609375,3.0
1695747824045,-0.11035156,-0.9578247,0.10223389,1.953125,-17.578125,2.953125
1695747824071,-0.14086914,-1.0010376,0.1564331,-0.109375,-16.953125,3.4375
1695747824133,-0.11694336,-1.008606,0.1671753,-1.25,-18.265625,3.953125
1695747824162,-0.13305664,-1.0049438,0.15716553,-2.265625,-18.25,4.453125
1695747824191,-0.13964844,-0.97906494,0.15032959,-0.859375,-18.171875,3.984375
1695747824252,-0.15844727,-0.95977783,0.17425537,0.71875,-17.921875,4.125
1695747824285,-0.13720703,-0.93756104,0.16351318,-3.59375,-17.8125,2.625
1695747824312,-0.15991211,-0.9570923,0.17254639,-2.96875,-16.71875,1.78125
1695747824358,-0.18188477,-0.954895,0.1564331,-0.71875,-15.578125,2.15625
1695747824402,-0.13378906,-0.98883057,0.16497803,0.421875,-15.03125,3.203125
1695747824447,-0.07397461,-1.0029907,0.19573975,-1.21875,-19.28125,4.9375
1695747824492,-0.19116211,-0.9937134,0.21795654,-4.140625,-23.953125,4.328125
1695747824522,-0.20898438,-1.0447388,0.19915771,-3.6875,-23.328125,2.265625
1695747824553,-0.11694336,-1.0117798,0.15838623,2.265625,-18.6875,0.625
1695747824583,0.013183594,-1.0752563,0.11932373,-5.90625,-19.53125,1.859375
1695747824642,-0.06323242,-1.0564575,0.2098999,-13.046875,-24.640625,1.03125
1695747824672,-0.1574707,-1.0298462,0.15472412,-11.5,-23.75,-2.5625
1695747824702,-0.09350586,-0.9380493,0.10394287,-2.1875,-14.71875,-1.796875
1695747824763,0.14086914,-0.90753174,0.11029053,-0.71875,-16.484375,3.09375
1695747824823,0.15917969,-0.84381104,0.10223389,-2.4375,-23.640625,6.734375
1695747824852,-0.03857422,-0.87213135,0.12298584,-0.125,-24.59375,6.640625
1695747824882,-0.056152344,-1.0130005,0.15106201,1.3125,-19.5,2.953125
1695747824915,0.004638672,-1.0986938,0.17596436,1.25,-17.15625,1.484375
1695747824942,2.4414062E-4,-1.0359497,0.18206787,-0.453125,-16.828125,2.453125
1695747825003,-0.040283203,-1.0025024,0.19354248,-0.59375,-16.734375,2.515625
1695747825064,-0.0234375,-0.9224243,0.16400146,2.828125,-16.796875,4.140625
1695747825068,-0.052490234,-0.87457275,0.18743896,2.6875,-14.671875,4.140625
1695747825130,-0.04248047,-0.9570923,0.1984253,4.640625,-15.484375,5.5625
1695747825152,-0.018554688,-0.9663696,0.18719482,4.65625,-15.40625,4.15625
1695747825182,-0.02758789,-0.960022,0.18231201,3.953125,-16.140625,3.609375
1695747825244,-0.060546875,-0.95880127,0.20257568,3.5625,-17.203125,2.140625
1695747825303,-0.05908203,-0.9421997,0.22137451,2.015625,-16.328125,0.40625
1695747825306,-0.038330078,-0.9463501,0.20965576,0.8125,-16.859375,-1.140625
1695747825363,-0.040527344,-0.9710083,0.22088623,0.09375,-17.265625,-2.921875
1695747825394,-0.06762695,-0.97735596,0.20672607,0.03125,-15.796875,-2.578125
1695747825422,-0.08691406,-0.9541626,0.1864624,1.421875,-14.90625,-4.25
1695747825467,-0.14355469,-0.94244385,0.24090576,1.546875,-11.46875,-7.453125
1695747825512,-0.20776367,-1.029602,0.21380615,-3.625,-6.796875,-10.84375
1695747825542,-0.03881836,-1.0542603,0.12420654,-4.796875,-10.15625,-10.5625
1695747825603,-0.02368164,-1.1123657,0.1605835,-9.96875,-12.859375,-5.84375
1695747825634,-0.053466797,-1.1531372,0.15496826,-5.5,-14.53125,-0.984375
1695747825662,-0.11621094,-1.0134888,0.1696167,1.984375,-9.984375,-4.140625
1695747825722,-0.063964844,-0.9180298,0.15765381,-1.34375,-7.90625,-5.234375
1695747825752,0.026367188,-0.87750244,0.073913574,-3.25,-10.390625,-1.28125
1695747825783,-0.024658203,-0.8640747,0.025817871,-7.5625,-11.484375,0.640625
1695747825827,-0.091796875,-0.9937134,0.03314209,-9.078125,-11.96875,2.21875
1695747825871,-0.079833984,-1.102356,0.06512451,-5.40625,-13.546875,-0.46875
1695747825902,-0.08496094,-1.0750122,0.101989746,-1.375,-20.609375,-1.71875
1695747825972,-0.07788086,-0.9800415,0.11541748,-1.140625,-23.171875,-1.0
1695747825995,-0.10644531,-0.89556885,0.109802246,-3.75,-24.734375,0.71875
1695747826021,-0.10546875,-0.9324341,0.08685303,-4.0,-26.15625,0.828125
1695747826052,-0.14453125,-0.93878174,0.09246826,-1.953125,-26.5,0.953125
1695747826112,-0.16088867,-0.96173096,0.12030029,-1.75,-26.0,2.265625
1695747826143,-0.16772461,-0.96881104,0.16082764,-1.671875,-26.578125,3.515625
1695747826172,-0.15429688,-0.95806885,0.16131592,-2.46875,-27.265625,4.6875
1695747826232,-0.19482422,-0.9541626,0.1539917,-1.703125,-24.640625,4.9375
1695747826263,-0.20751953,-0.9649048,0.16693115,0.75,-20.875,3.84375
1695747826292,-0.17016602,-0.94976807,0.16937256,1.171875,-21.4375,3.796875
1695747826383,-0.16333008,-0.9439087,0.17303467,-0.28125,-22.6875,3.515625
1695747826386,-0.1496582,-0.9717407,0.19793701,-0.90625,-25.65625,5.921875
1695747826412,-0.18383789,-0.96417236,0.22943115,-3.3125,-26.78125,5.5625
1695747826472,-0.15771484,-0.972229,0.22235107,-2.796875,-26.375,5.703125
1695747826502,-0.14892578,-0.97857666,0.24505615,-6.078125,-28.359375,5.203125
1695747826533,-0.23803711,-1.048645,0.23138428,-16.703125,-31.875,1.5625
1695747826625,-0.24121094,-1.1211548,0.17425537,-6.234375,-28.5625,-1.0625
1695747826628,0.004638672,-1.164856,0.17327881,-10.015625,-20.921875,2.546875
1695747826651,-0.013671875,-1.0845337,0.20794678,-13.890625,-22.96875,3.71875
1695747826712,-0.0925293,-0.9060669,0.13616943,-7.671875,-29.015625,3.546875
1695747826742,-0.12915039,-0.74786377,0.03314209,2.1875,-21.359375,1.953125
1695747826772,0.057861328,-0.85894775,0.05291748,-2.015625,-19.09375,4.578125
1695747826848,0.040527344,-0.987854,0.19793701,-8.6875,-22.953125,3.109375
1695747826851,-0.057373047,-1.0740356,0.15252686,-3.953125,-21.734375,4.1875
1695747826892,-0.040283203,-1.0230103,0.1486206,1.765625,-13.921875,3.828125
1695747826952,-0.05078125,-1.0166626,0.19256592,5.234375,-10.78125,2.359375
1695747826982,-0.052001953,-0.9627075,0.15179443,2.96875,-11.359375,1.375
1695747827013,-0.017578125,-0.9104614,0.14227295,1.59375,-10.71875,4.015625
1695747827072,-0.051513672,-0.9302368,0.18353271,1.890625,-11.96875,3.0625
1695747827102,-0.07348633,-0.94610596,0.21478271,1.46875,-11.453125,4.046875
1695747827132,-0.09033203,-0.97613525,0.20306396,2.484375,-10.140625,3.21875
1695747827192,-0.08251953,-0.9590454,0.20550537,3.890625,-8.375,2.25
1695747827223,-0.11425781,-0.97540283,0.21502686,4.953125,-6.921875,1.15625
1695747827282,-0.084472656,-0.95147705,0.19232178,3.8125,-5.625,0.890625
1695747827344,-0.07421875,-0.9458618,0.20599365,2.625,-6.59375,0.28125
1695747827347,-0.11230469,-0.9338989,0.2218628,1.109375,-4.59375,-0.453125
1695747827372,-0.12695312,-0.9365845,0.22479248,1.0625,-2.1875,-2.140625
1695747827402,-0.09008789,-0.94537354,0.21234131,0.140625,0.0,-2.296875
1695747827462,-0.072265625,-0.9390259,0.19891357,0.796875,-0.046875,-2.078125
1695747827492,-0.16357422,-0.96221924,0.28582764,-1.921875,-0.484375,-4.9375
1695747827523,-0.27368164,-1.0740356,0.2567749,-5.984375,0.28125,-10.3125
1695747827582,0.0,-1.0359497,0.19940186,-6.171875,-3.21875,-11.515625
1695747827673,-0.06298828,-1.125061,0.14837646,-13.890625,-5.90625,-3.03125
1695747827676,-0.107421875,-1.1848755,0.11468506,-9.5625,-7.234375,-1.59375
1695747827702,-0.13085938,-1.0046997,0.15106201,8.9375,0.59375,-6.359375
1695747827732,-0.0234375,-0.86383057,0.13616943,5.859375,2.71875,-4.828125
1695747827792,-0.056396484,-0.8357544,0.0680542,-1.125,-0.5,1.203125
1695747827822,-0.13085938,-0.89678955,-5.493164E-4,-8.703125,-2.234375,0.875
1695747827852,-0.109375,-1.0515747,0.031677246,-6.484375,-2.265625,1.671875
1695747827883,-0.11425781,-1.125061,0.101257324,-1.5625,-7.609375,0.84375
1695747827942,-0.0949707,-1.0127563,0.13861084,4.84375,-9.125,0.421875
1695747827972,-0.13256836,-0.88775635,0.105895996,5.90625,-7.171875,1.78125
1695747828002,-0.11767578,-0.89385986,0.07611084,3.1875,-5.375,2.125
1695747828063,-0.15576172,-0.9031372,0.08807373,1.546875,-4.546875,1.859375
1695747828093,-0.16967773,-0.96759033,0.11224365,-1.71875,-3.125,2.34375
1695747828122,-0.15795898,-1.0105591,0.14544678,-0.28125,-4.21875,1.1875
1695747828182,-0.14672852,-0.97662354,0.16815186,-0.53125,-6.5,2.578125
1695747828211,-0.15576172,-0.9907837,0.17938232,-2.296875,-7.296875,2.421875
1695747828274,-0.17211914,-0.9558716,0.1762085,0.265625,-6.390625,3.46875
1695747828302,-0.18945312,-0.9463501,0.17059326,-0.109375,-5.03125,3.015625
1695747828332,-0.18652344,-0.9326782,0.18035889,1.484375,-6.1875,2.765625
1695747828362,-0.18603516,-0.9439087,0.17889404,-0.1875,-6.015625,2.65625
1695747828423,-0.16992188,-0.96343994,0.19012451,-1.078125,-7.015625,3.875
1695747828451,-0.16503906,-0.96295166,0.22357178,-1.1875,-7.703125,3.921875
1695747828482,-0.1940918,-0.99835205,0.2177124,-3.640625,-7.609375,3.875
1695747828543,-0.18457031,-1.008606,0.21136475,-7.75,-12.34375,3.5625
1695747828572,-0.20532227,-1.0872192,0.24261475,-4.765625,-10.421875,1.828125
1695747828633,-0.1315918,-1.1394653,0.15960693,-3.59375,-10.734375,1.765625
1695747828662,-0.023925781,-1.1524048,0.17108154,-6.765625,-8.109375,2.125
1695747828692,0.033203125,-1.0557251,0.137146,-7.03125,-10.484375,2.875
1695747828722,-0.015625,-0.8862915,0.062683105,1.734375,-8.625,3.953125
1695747828812,-0.015380859,-0.7432251,0.07269287,10.109375,-5.859375,4.359375
1695747828815,-0.026611328,-0.8777466,0.1251831,-2.1875,-0.953125,1.3125
1695747828842,0.08227539,-1.0215454,0.16033936,-6.140625,-4.28125,0.75
1695747828901,-0.013183594,-1.0337524,0.14715576,-1.3125,-2.3125,1.625
1695747828962,-0.05834961,-1.0222778,0.16473389,1.890625,1.453125,0.875
1695747828965,-0.056640625,-0.9939575,0.15618896,0.859375,2.515625,-0.609375
1695747829022,-0.04736328,-0.91973877,0.112976074,4.0625,4.015625,0.15625
1695747829052,-0.027832031,-0.923645,0.16229248,1.890625,6.03125,0.78125
1695747829081,-0.03173828,-0.9746704,0.2020874,0.5625,4.0,-0.078125
1695747829114,-0.052001953,-0.97540283,0.21185303,0.203125,3.4375,-1.296875
1695747829172,-0.06762695,-0.9741821,0.20037842,1.6875,5.265625,-1.515625
1695747829202,-0.08081055,-0.95880127,0.20159912,3.390625,4.203125,-1.453125
1695747829232,-0.08129883,-0.9404907,0.21380615,0.46875,5.609375,-2.78125
1695747829292,-0.104003906,-0.94610596,0.21234131,1.609375,4.734375,-1.984375
1695747829323,-0.10961914,-0.9561157,0.20697021,-0.375,5.328125,-3.453125
1695747829352,-0.114746094,-0.95098877,0.2189331,0.953125,7.40625,-3.6875
1695747829412,-0.10620117,-0.9536743,0.22698975,0.515625,9.375,-4.40625
1695747829442,-0.111083984,-0.9524536,0.2296753,0.578125,9.46875,-3.1875
1695747829472,-0.14355469,-0.9595337,0.24261475,0.828125,9.046875,-4.765625
1695747829548,-0.21313477,-0.96051025,0.2802124,2.46875,11.859375,-8.578125
1695747829593,-0.21142578,-0.99298096,0.23577881,-2.9375,13.125,-10.359375
1695747829597,-0.03955078,-1.0325317,0.21307373,-8.3125,8.265625,-8.84375
1695747829651,-0.099853516,-1.1287231,0.18377686,-13.421875,3.734375,-2.546875
1695747829683,-0.06518555,-1.1948853,0.13128662,-4.59375,3.4375,0.90625
1695747829712,-0.095703125,-0.97662354,0.11810303,8.1875,9.53125,-3.6875
1695747829772,-0.040771484,-0.8362427,0.12982178,11.140625,17.0,-5.265625
1695747829802,0.05444336,-0.83380127,0.08392334,2.5,10.609375,1.765625
1695747829832,-0.040283203,-0.9221802,0.06854248,-10.09375,0.28125,1.796875
1695747829892,-0.13500977,-1.072815,0.1149292,-7.625,-1.28125,-1.28125
1695747829923,-0.11767578,-1.116272,0.16033936,1.15625,0.09375,-1.5
1695747829952,-0.07104492,-0.9758911,0.14715576,7.25,-0.84375,-2.1875
1695747830012,-0.099365234,-0.8821411,0.097595215,7.890625,-1.453125,0.96875
1695747830042,-0.10131836,-0.9109497,0.098083496,6.234375,-1.40625,2.765625
1695747830072,-0.1430664,-0.9212036,0.13739014,5.9375,-1.484375,2.78125
1695747830131,-0.14477539,-0.9595337,0.11981201,3.890625,0.0,3.859375
1695747830163,-0.119140625,-0.98321533,0.14715576,3.09375,-0.59375,3.53125
1695747830222,-0.11987305,-1.005188,0.17108154,3.578125,-3.390625,4.546875
1695747830282,-0.12060547,-0.9944458,0.16619873,3.625,-4.65625,4.375
1695747830285,-0.14013672,-0.9639282,0.17059326,2.921875,-5.171875,4.03125
1695747830314,-0.14575195,-0.96588135,0.1786499,2.375,-4.53125,3.5
1695747830343,-0.1484375,-0.9546509,0.17279053,1.609375,-4.203125,2.625
1695747830418,-0.15844727,-0.9578247,0.1749878,-0.25,-3.796875,1.921875
1695747830432,-0.1574707,-0.97198486,0.1798706,-0.375,-5.0,2.234375
1695747830463,-0.13110352,-0.99713135,0.21624756,-2.375,-7.46875,2.703125
1695747830523,-0.13598633,-1.050354,0.184021,-6.625,-13.15625,3.890625
1695747830553,-0.203125,-1.0852661,0.20965576,-2.140625,-3.296875,3.046875
1695747830583,-0.075683594,-1.1338501,0.07977295,-3.625,-3.5,5.4375
1695747830642,0.06201172,-1.1670532,0.13787842,-12.3125,-6.15625,5.78125
1695747830672,0.030273438,-1.0637817,0.19403076,-8.984375,-4.859375,3.109375
1695747830704,-0.010009766,-0.8599243,0.06317139,0.921875,-3.984375,2.109375
1695747830762,0.01928711,-0.73150635,0.04119873,10.125,-0.15625,2.453125
1695747830791,0.103515625,-0.8206177,0.0758667,5.640625,-2.296875,-0.328125
1695747830822,0.048828125,-0.9758911,0.1239624,-1.703125,-2.0,-3.25
1695747830882,-0.0068359375,-1.0996704,0.09979248,-2.40625,-0.890625,-2.546875
1695747830912,0.0061035156,-1.1008911,0.15814209,0.265625,2.53125,-4.265625
1695747830942,-0.0625,-1.0527954,0.137146,-1.546875,4.96875,-6.015625
1695747831002,-0.041503906,-0.92852783,0.09320068,2.53125,6.34375,-6.3125
1695747831032,-0.025878906,-0.8792114,0.12200928,3.96875,10.671875,-5.109375
1695747831063,0.005859375,-0.9192505,0.14105225,-2.0,7.359375,-3.0
1695747831122,-0.038085938,-0.9768677,0.1984253,-4.640625,6.078125,-2.90625
1695747831152,-0.07763672,-1.0007935,0.19451904,-4.265625,6.203125,-2.3125
1695747831182,-0.07397461,-0.99468994,0.1954956,1.109375,6.5,-1.765625
1695747831244,-0.10229492,-0.9500122,0.19671631,5.53125,7.109375,-1.703125
1695747831302,-0.08544922,-0.9326782,0.19281006,4.140625,6.703125,-1.234375
1695747831306,-0.09643555,-0.9351196,0.2008667,3.109375,5.984375,-1.921875
1695747831362,-0.10180664,-0.93414307,0.21087646,2.90625,6.21875,-2.71875
1695747831393,-0.095947266,-0.97320557,0.19329834,1.671875,5.59375,-2.46875
1695747831512,-0.10864258,-0.96954346,0.18841553,0.828125,5.21875,-2.75
1695747831515,-0.14208984,-0.9602661,0.21697998,2.28125,6.046875,-3.515625
1695747831518,-0.21240234,-0.9949341,0.24212646,1.65625,8.546875,-6.515625
1695747831542,-0.20483398,-1.0359497,0.20062256,-3.90625,9.234375,-8.875
1695747831617,-0.0546875,-1.041565,0.1539917,-4.40625,5.546875,-5.640625
1695747831621,-0.076660156,-1.107727,0.16595459,-8.671875,3.09375,-1.484375
1695747831662,-0.076171875,-1.145813,0.16229248,-1.203125,1.828125,1.265625
1695747831753,-0.1394043,-0.9619751,0.18206787,5.34375,9.265625,-6.140625
1695747831757,-0.021972656,-0.91534424,0.12005615,3.5,9.546875,-5.484375
1695747831783,-0.007080078,-0.83428955,0.1005249,-1.953125,8.984375,-2.46875
1695747831812,-0.09277344,-0.8682251,0.07269287,-6.640625,7.65625,-0.203125
1695747831871,-0.08276367,-1.0054321,0.050964355,-10.5,6.796875,0.234375
1695747831903,-0.032226562,-1.0864868,0.109313965,-3.34375,2.96875,-0.8125
1695747831933,-0.09008789,-1.0393677,0.152771,2.53125,2.640625,0.6875
1695747831992,-0.09790039,-0.9871216,0.101989746,4.296875,0.4375,1.59375
1695747832022,-0.08251953,-0.9121704,0.13250732,8.734375,1.453125,1.921875
1695747832051,-0.11645508,-0.89801025,0.105895996,6.0,1.859375,2.59375
1695747832112,-0.08862305,-0.9414673,0.1239624,4.3125,1.34375,2.515625
1695747832142,-0.12988281,-0.9470825,0.14691162,1.03125,-0.203125,2.640625
1695747832172,-0.118652344,-0.97442627,0.14178467,1.234375,0.640625,3.21875
1695747832232,-0.09326172,-0.99884033,0.16473389,1.3125,-0.875,3.453125
1695747832263,-0.11450195,-0.98809814,0.18133545,1.828125,-3.21875,3.09375
1695747832294,-0.14355469,-0.9685669,0.19256592,1.03125,-2.9375,1.921875
1695747832352,-0.16577148,-0.9480591,0.17816162,1.703125,-2.015625,0.984375
1695747832384,-0.14916992,-0.9500122,0.14984131,2.15625,-1.0625,0.40625
1695747832411,-0.12451172,-0.95635986,0.17572021,2.375,-1.796875,1.421875
1695747832473,-0.12768555,-0.9680786,0.16326904,0.3125,-1.9375,2.421875
1695747832502,-0.10913086,-0.98028564,0.19500732,-1.0625,-6.015625,4.4375
1695747832547,-0.14868164,-1.0891724,0.20404053,-7.15625,-7.6875,3.125
1695747832623,-0.19213867,-1.0916138,0.18792725,0.09375,-4.359375,1.625
1695747832626,0.0075683594,-1.2166138,0.10491943,-3.65625,-0.828125,2.71875
1695747832652,0.07421875,-1.123352,0.17254639,-5.875,-3.734375,2.421875
1695747832742,0.017822266,-0.9849243,0.07977295,1.171875,-7.015625,1.609375
1695747832746,-0.033203125,-0.770813,0.013366699,8.84375,-3.5625,1.6875
1695747832802,0.0087890625,-0.78375244,0.020935059,12.84375,1.375,0.5625
1695747832833,0.10546875,-0.9299927,0.070739746,8.59375,0.421875,-0.28125
1695747832862,0.03930664,-1.0735474,0.12860107,-3.1875,-3.34375,-3.546875
1695747832892,-0.029052734,-1.1397095,0.12371826,1.015625,-0.984375,-3.515625
1695747832952,-0.0859375,-1.0232544,0.08734131,3.6875,6.484375,-6.265625
1695747833013,0.02758789,-0.95562744,0.034362793,4.015625,6.578125,-5.140625
1695747833042,0.030761719,-0.9055786,0.06781006,-1.84375,4.1875,-2.625
1695747833072,-0.028808594,-0.95147705,0.14154053,-9.203125,1.921875,-2.15625
1695747833134,-0.03149414,-0.9607544,0.16229248,-8.375,4.09375,-2.65625
1695747833137,-0.038330078,-0.9470825,0.14007568,-4.25,4.9375,-2.15625
1695747833253,-0.04736328,-0.96295166,0.15716553,0.515625,5.75,-0.953125
1695747833256,-0.08520508,-0.95196533,0.1552124,0.71875,6.171875,-0.5625
1695747833263,-0.08251953,-0.94781494,0.18035889,0.9375,6.078125,0.3125
1695747833282,-0.08178711,-0.94610596,0.19866943,2.34375,5.125,-0.578125
1695747833343,-0.103759766,-0.9414673,0.18035889,1.71875,5.0,-2.125
1695747833371,-0.12084961,-0.9500122,0.20355225,1.8125,5.90625,-3.671875
1695747833402,-0.11425781,-0.9673462,0.18841553,2.015625,5.6875,-3.8125
1695747833462,-0.08959961,-0.9578247,0.18182373,0.515625,4.96875,-3.734375
1695747833523,-0.10424805,-0.9578247,0.20111084,0.125,3.5,-2.859375
1695747833526,-0.23242188,-0.98565674,0.2736206,-1.15625,4.65625,-7.3125
1695747833582,-0.25927734,-1.0755005,0.19622803,-5.953125,8.25,-10.671875
1695747833612,-0.0063476562,-1.0393677,0.12640381,0.578125,4.140625,-8.3125
1695747833642,-0.05419922,-1.0952759,0.152771,-6.375,3.375,-2.703125
1695747833702,-0.1105957,-1.1480103,0.13372803,3.9375,1.265625,1.09375
1695747833732,-0.11743164,-0.9734497,0.13397217,6.359375,8.1875,-5.453125
1695747833761,-0.072265625,-0.9607544,0.13616943,0.609375,8.90625,-5.078125
1695747833823,0.015380859,-0.88775635,0.08441162,-1.5625,5.0625,-2.046875
1695747833851,-0.103515625,-0.8518677,0.07122803,-6.21875,4.5,-0.640625
1695747833881,-0.12646484,-0.96173096,0.04534912,-8.25,4.765625,-0.296875
1695747833943,-0.08959961,-1.0266724,0.05633545,-5.3125,3.890625,-2.359375
1695747833971,-0.06689453,-1.0527954,0.08880615,-1.125,2.015625,-1.734375
1695747834002,-0.1274414,-0.975647,0.13641357,0.34375,1.21875,-1.203125
1695747834062,-0.11450195,-0.9710083,0.13934326,-0.96875,-3.28125,0.59375
1695747834091,-0.092285156,-0.9187622,0.14837646,6.0,-2.234375,2.6875
1695747834122,-0.13623047,-0.91241455,0.10418701,1.359375,-0.890625,3.609375
1695747834183,-0.1262207,-0.9680786,0.112976074,1.46875,-2.625,2.46875
1695747834242,-0.16967773,-0.9678345,0.15594482,4.03125,-2.515625,2.96875
1695747834272,-0.16113281,-0.9668579,0.16033936,1.640625,-2.390625,1.859375
1695747834332,-0.14648438,-0.960022,0.17181396,1.203125,-3.359375,2.46875
1695747834336,-0.16186523,-0.95635986,0.18109131,-0.671875,-4.609375,3.03125
1695747834362,-0.16894531,-0.954895,0.1876831,-1.09375,-4.40625,3.21875
1695747834425,-0.18676758,-0.958313,0.1876831,-2.03125,-2.390625,2.453125
1695747834451,-0.1730957,-0.9841919,0.18939209,-2.15625,-0.96875,0.71875
1695747834482,-0.15820312,-0.98150635,0.20843506,-0.1875,-1.421875,1.21875
1695747834544,-0.15063477,-0.97735596,0.20648193,-1.625,-2.609375,3.0
1695747834573,-0.10498047,-0.9734497,0.22454834,-3.921875,-7.6875,4.515625
1695747834602,-0.14648438,-0.9907837,0.24407959,-7.671875,-13.53125,6.5
1695747834662,-0.21777344,-1.0403442,0.22991943,-1.46875,-5.234375,4.4375
1695747834691,-0.15795898,-1.0715942,0.14129639,-1.859375,-5.1875,3.328125
1695747834723,0.06689453,-1.217102,0.14105225,0.890625,-2.59375,2.96875
1695747834753,0.024902344,-1.0603638,0.23358154,-7.03125,-4.375,-1.296875
1695747834812,-0.060546875,-0.90875244,0.06488037,-0.96875,-8.390625,-3.171875
1695747834843,0.00390625,-0.77789307,9.1552734E-4,3.484375,-4.09375,-0.6875
1695747834872,0.0871582,-0.8543091,0.09490967,6.796875,-4.4375,-0.21875
1695747834963,0.055908203,-0.9439087,0.1539917,-4.765625,-7.125,-2.25
1695747834966,-0.057128906,-1.08844,0.20062256,-9.890625,-7.46875,-3.9375
1695747834992,-0.07470703,-1.1155396,0.17596436,2.84375,-1.046875,-3.53125
1695747835082,-0.06347656,-1.0083618,0.15594482,5.53125,4.375,-6.453125
1695747835086,-0.017822266,-0.90509033,0.09637451,7.171875,3.6875,-1.84375
1695747835113,-0.03881836,-0.8723755,0.1359253,1.03125,3.15625,-0.484375
1695747835173,-0.04736328,-0.9607544,0.19207764,1.53125,0.6875,1.03125
1695747835202,-0.07421875,-0.9480591,0.19598389,2.546875,1.125,-0.421875
1695747835263,-0.107910156,-0.96099854,0.19085693,2.109375,2.0,-0.484375
1695747835292,-0.11669922,-0.9768677,0.20599365,4.40625,3.046875,-0.4375
1695747835353,-0.119628906,-0.91900635,0.19329834,5.328125,3.796875,-1.3125
1695747835357,-0.10668945,-0.9351196,0.20428467,4.28125,4.640625,-1.109375
1695747835414,-0.12817383,-0.95513916,0.21820068,2.453125,4.640625,-2.0
1695747835444,-0.12524414,-0.9673462,0.21087646,1.890625,5.390625,-2.8125
1695747835472,-0.11010742,-0.9614868,0.18597412,3.09375,6.203125,-2.390625
1695747835532,-0.10229492,-0.95880127,0.23699951,1.0625,3.625,-1.875
1695747835564,-0.29614258,-0.99713135,0.29193115,0.046875,4.734375,-7.921875
1695747835622,-0.19433594,-1.0530396,0.17303467,-2.15625,8.0625,-9.328125
1695747835713,-0.022949219,-1.041565,0.13641357,-7.96875,4.609375,-2.375
1695747835716,-0.10229492,-1.1980591,0.1539917,-15.265625,-3.078125,-1.4375
1695747835719,-0.099121094,-1.2012329,0.10638428,-0.4375,1.421875,0.125
1695747835772,-0.11352539,-0.87384033,0.12640381,11.125,8.90625,-7.625
1695747835803,-0.0036621094,-0.84332275,0.10614014,3.984375,10.640625,-2.78125
1695747835832,-0.013671875,-0.77911377,0.038024902,-1.5625,6.78125,2.109375
1695747835893,-0.07861328,-0.9524536,0.0065307617,-14.234375,1.75,2.8125
1695747835922,-0.103271484,-1.1633911,0.09588623,-10.296875,-2.0,-0.28125
1695747835953,-0.10644531,-1.1240845,0.14398193,0.46875,-4.84375,-1.609375
1695747836012,-0.0690918,-0.9378052,0.1359253,5.171875,-3.515625,-2.15625
1695747836072,-0.14868164,-0.8411255,0.11517334,4.078125,-4.359375,2.375
1695747836076,-0.07470703,-0.9011841,0.057556152,2.328125,-4.4375,2.671875
1695747836163,-0.122802734,-0.94659424,0.09979248,3.28125,-5.671875,2.421875
1695747836166,-0.1430664,-0.9800415,0.15106201,1.375,-5.59375,2.515625
1695747836192,-0.13842773,-0.9710083,0.16864014,-0.625,-7.5,3.171875
1695747836222,-0.13549805,-0.97662354,0.1786499,-1.3125,-9.625,3.15625
1695747836283,-0.13183594,-0.9661255,0.17327881,0.09375,-10.0625,3.609375
1695747836343,-0.16699219,-0.9348755,0.1864624,0.015625,-9.921875,3.9375
1695747836348,-0.18334961,-0.9612427,0.18743896,-1.25,-9.515625,4.0625
1695747836402,-0.13964844,-0.95684814,0.17962646,-0.78125,-10.84375,3.828125
1695747836434,-0.14404297,-0.9495239,0.17449951,-0.203125,-10.546875,6.640625
1695747836492,-0.16430664,-0.9902954,0.20477295,-0.8125,-10.515625,7.1875
1695747836522,-0.13720703,-1.0183716,0.260437,-1.890625,-12.375,7.09375
1695747836552,-0.25317383,-1.0838013,0.27264404,-15.125,-14.09375,5.71875
1695747836583,-0.23779297,-1.1582642,0.19818115,-9.09375,-12.421875,4.328125
1695747836643,0.07519531,-1.2124634,0.16766357,-12.0,-6.34375,6.734375
1695747836672,0.17797852,-1.052063,0.16741943,-14.3125,-8.328125,9.265625
1695747836702,0.0043945312,-0.928772,0.15789795,-5.15625,-7.765625,8.375
1695747836762,0.023925781,-0.7632446,0.06414795,7.859375,-7.5,10.109375
1695747836792,0.012207031,-0.7593384,0.13153076,7.171875,-3.53125,3.28125
1695747836823,0.09057617,-0.9221802,0.18695068,-2.09375,-1.125,-1.234375
1695747836883,0.052001953,-1.0581665,0.230896,-3.640625,-1.796875,-2.671875
1695747836916,-0.016113281,-1.0703735,0.2218628,-0.796875,1.03125,-2.015625
1695747836942,-0.0146484375,-1.0210571,0.1696167,3.078125,6.5,-5.390625
1695747837004,0.049804688,-0.911438,0.1552124,3.84375,9.5625,-3.109375
1695747837038,0.029541016,-0.92022705,0.21282959,-0.125,8.140625,-2.421875
