# Sensor type: Respeck
# Activity type: Standing
# Activity subtype: Talking
# Subject id: s2063346
# Notes: 3.5
timestamp,accel_x,accel_y,accel_z,gyro_x,gyro_y,gyro_z
1695750387685,-0.046142578,-0.9746704,0.051940918,1.328125,0.359375,-2.0625
1695750387729,-0.068359375,-0.9873657,0.049987793,2.046875,-0.09375,-1.78125
1695750387769,-0.072021484,-0.99224854,0.04925537,2.640625,0.015625,-1.765625
1695750387798,-0.06518555,-0.9795532,0.04144287,2.25,0.734375,-1.921875
1695750387842,-0.076171875,-0.9866333,0.03656006,0.875,0.96875,-1.515625
1695750387872,-0.08496094,-0.9859009,0.035583496,0.625,1.65625,-1.6875
1695750387918,-0.075927734,-0.98394775,0.03704834,0.890625,1.59375,-1.546875
1695750387962,-0.0859375,-0.989563,0.04144287,0.5,2.3125,-1.453125
1695750387991,-0.08154297,-0.987854,0.042175293,0.0625,3.046875,-1.53125
1695750388037,-0.07763672,-0.9915161,0.031677246,-0.8125,2.96875,-1.484375
1695750388066,-0.07373047,-0.9920044,0.026550293,-1.34375,3.0,-1.71875
1695750388111,-0.08227539,-0.987854,0.04144287,0.09375,2.875,-1.9375
1695750388158,-0.07714844,-0.9768677,0.04144287,0.640625,2.390625,-2.078125
1695750388186,-0.08666992,-0.98272705,0.022399902,0.171875,2.15625,-1.3125
1695750388232,-0.0859375,-0.98272705,0.04144287,-0.890625,2.484375,-1.515625
1695750388276,-0.10131836,-0.987854,0.04437256,1.59375,2.671875,-0.609375
1695750388308,-0.09838867,-0.9771118,0.028259277,1.421875,2.671875,-0.53125
1695750388351,-0.083496094,-0.9751587,0.022888184,0.875,2.515625,-0.046875
1695750388397,-0.09350586,-0.9907837,0.030212402,2.53125,1.921875,0.3125
1695750388426,-0.083984375,-0.98101807,0.031433105,2.703125,1.703125,0.125
1695750388473,-0.083984375,-0.9763794,0.015563965,1.640625,0.796875,0.515625
1695750388517,-0.103271484,-0.9924927,0.039733887,2.28125,-0.1875,0.703125
1695750388548,-0.0859375,-0.97662354,0.02508545,2.03125,-0.484375,0.859375
1695750388592,-0.061035156,-0.975647,0.0211792,1.140625,0.46875,-0.828125
1695750388637,-0.0871582,-1.0083618,0.010437012,0.984375,0.0625,-1.234375
1695750388666,-0.11767578,-0.9924927,-0.008117676,-0.28125,0.234375,-0.9375
1695750388712,-0.09692383,-0.9663696,0.007507324,-0.6875,1.71875,-1.09375
1695750388757,-0.09082031,-0.97003174,0.038269043,-1.046875,2.734375,-1.203125
1695750388786,-0.09057617,-0.99005127,0.0289917,-0.484375,2.71875,-2.03125
1695750388831,-0.06567383,-0.9981079,0.018981934,0.46875,3.140625,-3.046875
1695750388861,-0.07495117,-0.9776001,0.010681152,-1.28125,2.109375,-3.609375
1695750388906,-0.10058594,-1.0095825,0.038513184,1.484375,0.84375,-3.03125
1695750388952,-0.09375,-0.9776001,0.019958496,1.015625,0.015625,-2.296875
1695750388981,-0.114746094,-0.9812622,0.00970459,-2.484375,-0.328125,-0.875
1695750389027,-0.118652344,-0.9873657,0.018981934,-1.625,-1.203125,-0.015625
1695750389071,-0.115722656,-0.9873657,0.03289795,-1.734375,0.3125,0.0
1695750389116,-0.10644531,-0.9771118,0.012634277,-2.15625,1.265625,-0.375
1695750389146,-0.10986328,-0.991272,0.027526855,-0.40625,2.390625,-0.71875
1695750389208,-0.09106445,-0.98443604,0.026794434,0.0,2.34375,-1.484375
1695750389222,-0.09741211,-0.9788208,0.024597168,0.328125,2.484375,-1.390625
1695750389268,-0.10961914,-0.9837036,0.02947998,0.296875,2.4375,-1.328125
1695750389312,-0.09008789,-0.9837036,0.02142334,-0.265625,2.484375,-1.421875
1695750389342,-0.0925293,-0.98687744,0.02557373,0.578125,2.21875,-1.171875
1695750389403,-0.09082031,-0.98883057,0.023864746,0.5625,2.171875,-1.359375
1695750389433,-0.09692383,-0.98443604,0.038513184,2.03125,1.390625,-0.859375
1695750389461,-0.09399414,-0.9788208,0.010437012,0.59375,1.21875,-1.484375
1695750389512,-0.1027832,-0.97979736,0.026062012,-0.265625,1.0625,-1.8125
1695750389536,-0.11303711,-0.9920044,0.038269043,3.375,0.0,-0.78125
1695750389582,-0.10864258,-0.98028564,0.018981934,1.71875,-0.375,-0.46875
1695750389642,-0.11279297,-0.98516846,0.022644043,0.234375,-0.96875,-0.15625
1695750389657,-0.119384766,-0.9824829,0.020690918,1.03125,-1.09375,0.375
1695750389704,-0.11450195,-0.9812622,0.022644043,0.28125,-0.375,0.578125
1695750389765,-0.12646484,-0.9807739,0.016784668,-0.828125,1.03125,0.546875
1695750389787,-0.13110352,-0.98638916,0.020935059,0.140625,2.8125,0.640625
1695750389822,-0.1171875,-0.975647,0.0079956055,0.4375,4.1875,0.59375
1695750389867,-0.1274414,-0.9817505,0.0067749023,-0.015625,6.203125,0.671875
1695750389898,-0.11450195,-0.9907837,0.010437012,-0.125,7.53125,0.875
1695750389942,-0.091796875,-0.98687744,1.8310547E-4,0.546875,10.5625,0.484375
1695750389988,-0.09082031,-0.9805298,0.020446777,1.890625,7.78125,0.34375
1695750390017,-0.06738281,-0.97369385,0.020202637,2.25,4.609375,-0.109375
1695750390093,-0.07763672,-0.99835205,0.012145996,-0.046875,3.234375,0.265625
1695750390107,-0.09423828,-0.9841919,0.01751709,1.390625,1.15625,0.4375
1695750390141,-0.07324219,-0.9817505,-0.0051879883,-0.53125,0.765625,-0.046875
1695750390188,-0.08642578,-0.987854,0.0040893555,-2.375,0.65625,-0.328125
1695750390228,-0.09863281,-1.0010376,0.023132324,0.390625,-0.046875,-0.328125
1695750390258,-0.083496094,-0.9763794,0.008728027,-1.34375,0.21875,-0.625
1695750390318,-0.09008789,-0.9841919,0.019470215,-1.53125,0.359375,-0.96875
1695750390332,-0.09887695,-0.98883057,0.012390137,-0.375,0.09375,-0.734375
1695750390378,-0.087402344,-0.9771118,0.01727295,-0.328125,0.359375,-0.5
1695750390422,-0.09106445,-0.9890747,0.0067749023,-1.4375,-0.046875,-0.375
1695750390500,-0.10913086,-0.9885864,0.022888184,-0.484375,0.328125,-0.328125
1695750390504,-0.092285156,-0.9763794,0.015563965,-0.671875,1.359375,-0.78125
1695750390542,-0.103759766,-0.98638916,0.009216309,-1.171875,1.8125,-1.0
1695750390572,-0.10546875,-0.9841919,0.013122559,-1.203125,2.46875,-0.96875
1695750390617,-0.10107422,-0.97784424,0.01361084,-0.21875,3.890625,-0.453125
1695750390662,-0.076416016,-0.9758911,0.007507324,0.375,4.421875,-0.734375
1695750390692,-0.08178711,-1.0046997,0.018493652,0.265625,5.0,-0.09375
1695750390738,-0.1003418,-0.98931885,0.027282715,1.5625,5.828125,-0.046875
1695750390785,-0.09887695,-0.97003174,0.027282715,1.6875,4.90625,0.96875
1695750390814,-0.104003906,-1.0032349,0.03387451,-0.140625,4.4375,1.4375
1695750390859,-0.08984375,-1.0132446,0.036315918,0.859375,5.09375,0.078125
1695750390934,-0.05517578,-0.9673462,0.015808105,0.078125,4.53125,-0.328125
1695750390937,-0.07519531,-0.97662354,0.02166748,1.25,2.90625,0.53125
1695750390979,-0.041259766,-0.99884033,0.016052246,-0.890625,1.484375,-1.171875
1695750391008,-0.07324219,-0.9866333,0.030212402,-0.421875,-0.125,-1.28125
1695750391052,-0.09326172,-0.99542236,0.031188965,0.875,-1.390625,-1.140625
1695750391097,-0.08520508,-0.97613525,0.019470215,-0.296875,-1.515625,-0.546875
1695750391143,-0.09667969,-0.9939575,0.024841309,-0.734375,-2.390625,-0.25
1695750391173,-0.08105469,-1.0117798,0.016296387,0.515625,-2.9375,-0.84375
1695750391218,-0.06323242,-0.9651489,0.0072631836,-0.875,-3.15625,-1.640625
1695750391247,-0.095458984,-0.9692993,0.0138549805,-2.71875,-3.34375,-1.296875
1695750391293,-0.11352539,-0.9873657,0.03704834,-0.6875,-2.28125,-0.5
1695750391337,-0.09643555,-0.97857666,0.031677246,0.609375,0.53125,-0.796875
1695750391368,-0.123535156,-0.98809814,0.04046631,1.828125,2.515625,-0.15625
1695750391428,-0.11669922,-0.9795532,0.03265381,2.03125,4.140625,-0.90625
1695750391457,-0.087402344,-0.96759033,0.027282715,1.9375,4.9375,-1.234375
1695750391488,-0.08154297,-0.9920044,0.015319824,1.8125,4.421875,-0.6875
1695750391535,-0.08496094,-0.9976196,0.016540527,1.015625,3.796875,-0.65625
1695750391578,-0.06616211,-0.9819946,0.0016479492,0.5,2.5625,-0.59375
1695750391607,-0.064941406,-0.9758911,-7.9345703E-4,0.234375,0.421875,0.125
1695750391652,-0.07763672,-0.99835205,0.005065918,-0.296875,-1.609375,0.078125
1695750391699,-0.079833984,-0.9866333,-0.0068969727,-0.578125,-2.15625,0.1875
1695750391730,-0.08666992,-0.98150635,0.0048217773,-0.21875,-2.578125,0.15625
1695750391774,-0.10083008,-0.9817505,0.012145996,0.59375,-2.15625,0.140625
1695750391802,-0.10107422,-0.9793091,0.0053100586,1.109375,-1.203125,-0.1875
1695750391847,-0.10473633,-0.97979736,0.0065307617,1.046875,0.15625,-1.1875
1695750391892,-0.114746094,-0.989563,0.0072631836,1.890625,2.015625,-1.03125
1695750391922,-0.11450195,-0.9751587,0.00579834,2.203125,4.171875,-1.40625
1695750391968,-0.100097656,-0.9807739,-0.012756348,1.09375,5.1875,-1.375
1695750392013,-0.114990234,-0.99884033,0.0045776367,0.703125,6.0,-1.5625
1695750392043,-0.06958008,-0.9697876,0.009460449,0.75,6.140625,-2.1875
1695750392088,-0.08691406,-0.991272,-0.0044555664,0.734375,4.796875,-0.5
1695750392148,-0.052490234,-0.97613525,-0.013244629,-0.53125,3.40625,-1.203125
1695750392163,-0.07836914,-0.9981079,0.015319824,1.328125,1.515625,-0.21875
1695750392208,-0.07348633,-0.9902954,-0.013000488,0.5625,0.390625,-0.1875
1695750392253,-0.08569336,-0.9807739,-0.010559082,1.375,-0.828125,0.40625
1695750392282,-0.09716797,-0.9871216,-0.0068969727,0.328125,-1.0625,0.46875
1695750392327,-0.111328125,-0.98150635,-0.013244629,0.03125,-0.421875,0.875
1695750392388,-0.0925293,-0.97735596,-0.016174316,-0.046875,0.046875,0.28125
1695750392433,-0.11669922,-0.9783325,-0.0025024414,-0.515625,1.5625,0.078125
1695750392448,-0.111328125,-0.9837036,-0.009094238,0.4375,3.34375,-0.25
1695750392477,-0.07324219,-0.97247314,-0.02130127,0.625,4.203125,-1.34375
1695750392569,-0.08911133,-0.9871216,-0.011779785,1.09375,3.953125,-0.8125
1695750392573,-0.083496094,-0.99591064,-0.0020141602,1.015625,3.765625,-0.703125
1695750392598,-0.080566406,-0.98809814,-0.014953613,0.421875,3.484375,-0.328125
1695750392657,-0.08496094,-0.9812622,-0.013000488,-0.234375,2.8125,-0.03125
1695750392688,-0.083496094,-0.991272,-0.00982666,-0.03125,2.265625,-0.015625
1695750392718,-0.08496094,-0.9890747,-0.011779785,-0.453125,2.109375,-0.234375
1695750392763,-0.08935547,-0.98565674,-0.010803223,-0.796875,1.703125,-0.046875
1695750392808,-0.07836914,-0.9824829,-0.003967285,-0.65625,1.015625,-0.09375
1695750392837,-0.087402344,-0.987854,-0.002746582,-1.171875,0.84375,-0.140625
1695750392883,-0.09033203,-0.98321533,-0.01373291,-1.578125,1.0,-0.34375
1695750392929,-0.095458984,-0.9907837,-0.008117676,-1.84375,1.34375,-0.796875
1695750392957,-0.09448242,-0.98443604,-0.0020141602,-0.9375,2.171875,-1.078125
1695750393003,-0.092285156,-0.9768677,-3.0517578E-4,-0.671875,2.03125,-0.875
1695750393047,-0.084228516,-0.9807739,-0.00982666,0.328125,3.140625,-0.015625
1695750393077,-0.06323242,-0.9734497,-0.010070801,0.5,3.234375,0.359375
1695750393123,-0.0847168,-0.9859009,-0.00592041,0.96875,2.921875,1.109375
1695750393167,-0.06567383,-0.97540283,0.007019043,0.40625,2.609375,0.15625
1695750393197,-0.08544922,-0.9837036,-0.0015258789,1.34375,1.5625,0.734375
1695750393242,-0.0690918,-0.9924927,0.0033569336,0.421875,1.84375,0.015625
1695750393272,-0.06762695,-0.9805298,1.8310547E-4,1.125,1.609375,1.03125
1695750393334,-0.08081055,-0.9915161,-0.011779785,0.0625,2.0,1.8125
1695750393362,-0.08325195,-0.99224854,-0.0051879883,-0.359375,2.734375,0.890625
1695750393392,-0.07739258,-0.9951782,0.0018920898,-0.96875,2.75,0.96875
1695750393438,-0.083984375,-0.9849243,0.002380371,-1.65625,3.828125,0.734375
1695750393499,-0.043945312,-0.97613525,-0.0022583008,-1.578125,3.609375,0.0625
1695750393512,-0.0769043,-0.9883423,0.0045776367,-1.78125,3.15625,0.796875
1695750393557,-0.059814453,-0.9866333,1.8310547E-4,-1.359375,3.15625,0.34375
1695750393617,-0.053466797,-0.9968872,0.0053100586,-1.3125,2.953125,0.484375
1695750393632,-0.049560547,-0.97784424,0.006286621,-0.453125,1.640625,-0.53125
1695750393708,-0.064941406,-0.98223877,0.0138549805,-0.640625,1.34375,-0.46875
1695750393737,-0.051757812,-0.9837036,0.0036010742,-0.125,1.0625,-0.40625
1695750393753,-0.055419922,-0.98760986,0.009460449,-0.9375,0.21875,0.390625
1695750393800,-0.07861328,-0.9898071,0.011413574,-1.421875,0.484375,0.40625
1695750393842,-0.057861328,-0.9883423,0.007019043,-0.78125,1.078125,0.015625
1695750393918,-0.072753906,-0.9812622,0.005065918,-1.59375,0.84375,0.375
1695750393923,-0.0625,-0.97979736,0.0040893555,-1.765625,1.28125,-0.53125
1695750393964,-0.05444336,-0.9834595,-0.005432129,-0.6875,1.640625,0.109375
1695750393993,-0.0625,-0.9846802,0.009460449,-1.03125,1.984375,-0.40625
1695750394038,-0.05419922,-0.98150635,0.019714355,0.546875,2.578125,-0.359375
1695750394067,-0.061767578,-0.97906494,0.018737793,0.0,2.234375,-0.53125
1695750394113,-0.056640625,-0.98883057,0.016784668,0.015625,1.953125,-1.046875
1695750394173,-0.051757812,-0.987854,0.023376465,0.046875,1.640625,-1.1875
1695750394188,-0.043701172,-0.9834595,0.00579834,0.703125,0.890625,-0.921875
1695750394234,-0.04296875,-0.9673462,0.020935059,0.40625,0.453125,-0.5
1695750394277,-0.06542969,-0.9898071,0.020446777,1.171875,0.6875,-0.453125
1695750394307,-0.06665039,-0.98321533,0.020202637,1.140625,0.703125,-0.6875
1695750394353,-0.051513672,-0.9819946,0.0045776367,0.515625,1.28125,-0.828125
1695750394398,-0.0703125,-0.9805298,0.005065918,0.984375,0.578125,-1.40625
1695750394427,-0.0625,-0.99102783,0.011413574,1.875,1.8125,-0.796875
1695750394473,-0.06933594,-0.9883423,0.0036010742,0.9375,2.625,-1.328125
1695750394517,-0.06665039,-0.9937134,0.007019043,1.484375,2.53125,-1.609375
1695750394548,-0.048339844,-0.9859009,0.0053100586,1.203125,2.90625,-2.015625
1695750394627,-0.061279297,-0.98687744,-0.0012817383,1.234375,2.234375,-1.171875
1695750394636,-0.052978516,-0.98638916,-0.0049438477,0.578125,1.59375,-1.890625
1695750394671,-0.06591797,-0.9949341,0.0038452148,0.03125,1.328125,-1.78125
1695750394713,-0.0715332,-0.99224854,0.004333496,-0.296875,0.953125,-2.171875
1695750394742,-0.06225586,-0.9824829,0.008239746,-1.015625,0.390625,-2.125
1695750394788,-0.07373047,-0.9854126,0.007751465,-1.25,0.078125,-2.125
1695750394834,-0.07763672,-0.98687744,0.0040893555,-1.578125,0.421875,-2.46875
1695750394862,-0.075927734,-0.9793091,-0.0032348633,-2.296875,0.71875,-3.25
1695750394923,-0.09082031,-0.9961548,0.016052246,-3.421875,0.6875,-3.171875
1695750394951,-0.08959961,-0.98443604,0.014343262,-0.953125,0.9375,-2.75
1695750394982,-0.06958008,-0.9898071,0.018249512,-0.390625,2.5625,-1.984375
1695750395029,-0.08569336,-0.9949341,0.015563965,-0.984375,2.296875,-1.65625
1695750395088,-0.099609375,-0.9849243,0.015808105,-2.4375,2.21875,-1.21875
1695750395102,-0.08081055,-0.98028564,0.020446777,-0.96875,1.53125,-1.171875
1695750395148,-0.095947266,-0.9937134,0.019714355,-1.53125,2.359375,-0.75
1695750395208,-0.08959961,-0.987854,0.020935059,-1.5625,1.8125,-0.765625
1695750395222,-0.092285156,-0.99346924,0.022155762,-1.71875,1.71875,-0.96875
1695750395268,-0.0859375,-0.9837036,0.028015137,-1.203125,2.515625,-0.78125
1695750395328,-0.09863281,-0.98223877,0.027526855,-0.578125,2.21875,-0.515625
1695750395357,-0.10839844,-0.98931885,0.027038574,-0.1875,2.484375,-0.5625
1695750395403,-0.0859375,-0.9920044,0.03753662,-1.453125,2.703125,-1.0625
1695750395432,-0.1027832,-0.973938,0.023864746,-1.125,2.171875,-0.796875
1695750395462,-0.09082031,-0.9883423,0.019958496,-1.4375,2.8125,-0.9375
1695750395508,-0.103027344,-0.9932251,0.038269043,-0.828125,2.8125,-0.984375
1695750395536,-0.09375,-0.98809814,0.035827637,0.28125,2.5,-0.796875
1695750395583,-0.095703125,-0.9837036,0.02923584,-0.3125,2.640625,-1.234375
1695750395629,-0.09863281,-0.987854,0.031677246,0.40625,2.53125,-0.78125
1695750395704,-0.09667969,-0.9927368,0.04095459,1.375,2.171875,-0.515625
1695750395708,-0.1015625,-0.98321533,0.026306152,0.25,1.78125,0.140625
1695750395749,-0.09375,-0.9741821,0.019714355,-0.40625,1.0625,0.015625
1695750395778,-0.096191406,-0.98028564,0.030700684,-0.171875,0.921875,-0.046875
1695750395824,-0.08276367,-0.96539307,0.01361084,-0.578125,0.59375,-0.484375
1695750395869,-0.09301758,-0.9927368,0.038757324,0.125,0.609375,-0.6875
1695750395898,-0.10620117,-0.98809814,0.04510498,1.953125,0.484375,-0.21875
1695750395944,-0.10424805,-0.9885864,0.024353027,-0.390625,1.375,-0.234375
1695750395987,-0.08984375,-0.98760986,0.034362793,-1.203125,2.484375,-1.09375
1695750396018,-0.09106445,-0.99053955,0.024841309,-0.28125,1.671875,-0.65625
1695750396063,-0.09643555,-0.99176025,0.032165527,-0.140625,1.9375,-1.0
1695750396139,-0.076171875,-0.9812622,0.029724121,-0.484375,1.90625,-1.21875
1695750396143,-0.1015625,-0.9819946,0.031188965,-0.25,1.125,-0.96875
1695750396229,-0.09887695,-0.98638916,0.03314209,-0.484375,1.125,-1.15625
1695750396235,-0.10180664,-0.9768677,0.041931152,0.03125,0.9375,-0.671875
1695750396274,-0.10205078,-0.9846802,0.034851074,-0.28125,1.171875,-0.953125
1695750396303,-0.099365234,-0.9819946,0.039245605,-0.375,1.21875,-0.953125
1695750396333,-0.10253906,-0.9812622,0.046325684,-0.390625,1.671875,-1.0625
1695750396380,-0.10498047,-0.98883057,0.026550293,0.078125,1.421875,-0.515625
1695750396424,-0.09082031,-0.9824829,0.024108887,-1.640625,1.921875,-1.28125
1695750396452,-0.103027344,-0.98516846,0.04510498,-0.015625,2.03125,-0.4375
1695750396497,-0.103759766,-0.9795532,0.034118652,-0.71875,1.421875,-0.8125
1695750396543,-0.0949707,-0.9885864,0.03704834,-1.375,1.984375,-0.96875
1695750396573,-0.110839844,-0.9939575,0.04559326,0.046875,1.328125,-0.46875
1695750396618,-0.10180664,-0.98150635,0.04168701,0.171875,1.28125,-0.828125
1695750396678,-0.09814453,-0.9890747,0.03753662,-0.203125,1.203125,-0.40625
1695750396692,-0.107421875,-0.9834595,0.034118652,-1.09375,1.28125,-0.828125
1695750396738,-0.09887695,-0.989563,0.046081543,-0.21875,1.265625,-0.671875
1695750396785,-0.099609375,-0.9780884,0.03338623,-0.890625,1.703125,-1.015625
1695750396812,-0.107421875,-0.9805298,0.039978027,-0.21875,1.203125,-0.5
1695750396858,-0.09887695,-0.9846802,0.04168701,-0.375,1.765625,-0.890625
1695750396903,-0.10986328,-0.98443604,0.048034668,-0.140625,1.640625,-0.4375
1695750396932,-0.1027832,-0.9702759,0.032165527,-0.421875,1.59375,-0.5
1695750396978,-0.09790039,-0.9963989,0.03753662,-0.078125,1.6875,-0.375
1695750397007,-0.10253906,-0.9841919,0.046325684,-0.296875,1.625,-0.484375
1695750397053,-0.10546875,-0.9873657,0.048034668,-0.546875,1.421875,-0.46875
1695750397099,-0.100097656,-0.9819946,0.04486084,-0.6875,0.96875,-0.78125
1695750397143,-0.106933594,-0.9807739,0.050231934,-1.234375,0.78125,-0.375
1695750397172,-0.110839844,-0.9924927,0.04827881,-0.875,1.3125,-0.3125
1695750397279,-0.10180664,-0.9776001,0.057800293,-0.734375,2.109375,-0.9375
1695750397284,-0.110839844,-0.98883057,0.04046631,0.265625,1.03125,-0.25
1695750397292,-0.08666992,-0.9741821,0.03265381,-2.265625,1.921875,-1.171875
1695750397353,-0.107177734,-0.9956665,0.05706787,-0.21875,1.75,-0.484375
1695750397368,-0.10595703,-0.98101807,0.051696777,-0.75,1.3125,-1.15625
1695750397413,-0.103515625,-0.97369385,0.05267334,-1.734375,1.671875,-0.9375
1695750397458,-0.110839844,-0.9885864,0.05218506,-1.203125,0.578125,-0.890625
1695750397487,-0.104003906,-0.9902954,0.062438965,-0.421875,0.5625,-0.859375
1695750397548,-0.10180664,-0.9885864,0.062438965,-0.90625,1.015625,-0.4375
1695750397577,-0.110839844,-0.98565674,0.06121826,-0.25,1.625,-0.59375
1695750397607,-0.10498047,-0.98223877,0.06317139,0.8125,1.5625,-0.4375
1695750397653,-0.099365234,-0.9829712,0.04852295,0.328125,1.625,-0.609375
1695750397683,-0.100097656,-0.98321533,0.058776855,0.234375,1.890625,-0.46875
1695750397728,-0.10595703,-0.9807739,0.06048584,0.5625,1.703125,-0.53125
1695750397774,-0.103027344,-0.97613525,0.055114746,0.03125,1.453125,-0.515625
1695750397802,-0.1081543,-0.9793091,0.050964355,-0.4375,1.21875,-0.40625
1695750397850,-0.103027344,-0.9873657,0.058532715,-0.40625,1.484375,-0.640625
1695750397893,-0.10668945,-0.9932251,0.057556152,1.015625,0.96875,-0.03125
1695750397938,-0.09301758,-0.97491455,0.045837402,0.0,0.90625,-0.421875
1695750397968,-0.09448242,-0.9885864,0.047302246,-0.21875,1.046875,-0.609375
1695750398028,-0.10205078,-0.9824829,0.054870605,0.046875,0.625,-0.59375
1695750398043,-0.10083008,-0.9841919,0.051452637,-0.359375,0.6875,-0.421875
1695750398088,-0.096191406,-0.98394775,0.06854248,-0.015625,1.078125,-0.6875
1695750398149,-0.107177734,-0.97857666,0.06854248,0.984375,1.328125,-0.53125
1695750398162,-0.10644531,-0.97979736,0.041931152,0.0,0.71875,-0.28125
1695750398208,-0.09277344,-0.9866333,0.043884277,-2.359375,1.296875,-1.265625
1695750398253,-0.111083984,-0.98272705,0.06072998,-0.578125,1.375,-1.234375
1695750398282,-0.1105957,-0.98394775,0.05609131,-0.421875,0.40625,-1.234375
1695750398358,-0.107910156,-0.98321533,0.058288574,-0.984375,1.5625,-0.890625
1695750398388,-0.11303711,-0.99346924,0.066833496,-0.15625,1.09375,-0.875
1695750398417,-0.10961914,-0.9800415,0.061462402,0.359375,1.3125,-0.578125
1695750398448,-0.099365234,-0.98809814,0.051696777,-0.125,1.984375,-0.59375
1695750398478,-0.111572266,-0.9829712,0.062194824,-0.515625,1.640625,-0.71875
1695750398524,-0.11035156,-0.9859009,0.05682373,0.921875,1.40625,-0.625
1695750398567,-0.10131836,-0.9776001,0.058776855,-0.046875,1.390625,-0.671875
1695750398597,-0.111816406,-0.9805298,0.058288574,0.09375,1.15625,-0.75
1695750398643,-0.111328125,-0.98394775,0.05633545,-0.734375,1.171875,-0.6875
1695750398688,-0.107421875,-0.9812622,0.05657959,-1.1875,0.8125,-0.796875
1695750398718,-0.111328125,-0.98394775,0.055358887,-0.671875,1.15625,-0.671875
1695750398763,-0.10913086,-0.9846802,0.06536865,-0.421875,1.234375,-0.609375
1695750398824,-0.11450195,-0.989563,0.06390381,0.203125,1.3125,-0.375
1695750398837,-0.10668945,-0.98516846,0.055603027,-0.75,1.5625,-0.734375
1695750398898,-0.10888672,-0.987854,0.058532715,-0.390625,1.609375,-0.609375
1695750398943,-0.10668945,-0.9807739,0.06048584,0.140625,1.375,-0.5
1695750398958,-0.107421875,-0.97442627,0.062194824,-0.03125,1.421875,-0.4375
1695750399004,-0.10888672,-0.9746704,0.059020996,0.015625,0.90625,-0.34375
1695750399048,-0.1171875,-0.99224854,0.06390381,-0.296875,0.96875,-0.21875
1695750399078,-0.11376953,-0.9846802,0.0524292,-0.640625,1.171875,-0.359375
1695750399123,-0.09375,-0.9829712,0.05633545,-1.765625,1.703125,-1.265625
1695750399168,-0.119140625,-0.9866333,0.07122803,1.625,0.6875,0.1875
1695750399198,-0.08569336,-0.97369385,0.05267334,-1.078125,1.703125,-1.25
1695750399243,-0.11816406,-0.9834595,0.06781006,-1.453125,1.09375,-0.75
1695750399272,-0.123535156,-0.9866333,0.07269287,0.875,0.390625,-0.953125
1695750399318,-0.099853516,-0.9751587,0.061462402,-0.734375,1.671875,-1.0
1695750399363,-0.115478516,-0.9873657,0.06414795,0.453125,1.0,-0.5
1695750399392,-0.107421875,-0.98687744,0.06536865,0.6875,0.984375,-0.78125
1695750399438,-0.107177734,-0.9834595,0.06732178,0.375,1.0,-0.328125
1695750399483,-0.11206055,-0.97906494,0.055358887,-0.3125,1.015625,-0.765625
1695750399512,-0.11401367,-0.9859009,0.06707764,0.046875,1.078125,-0.640625
1695750399560,-0.10180664,-0.9849243,0.061462402,0.1875,1.34375,-0.796875
1695750399606,-0.1081543,-0.9768677,0.06903076,0.609375,1.34375,-0.625
1695750399633,-0.115722656,-0.9817505,0.06854248,0.375,1.328125,-0.203125
1695750399678,-0.10522461,-0.9758911,0.059020996,-0.078125,1.28125,-0.734375
1695750399723,-0.11254883,-0.9849243,0.06341553,0.015625,1.53125,-0.59375
1695750399753,-0.11254883,-0.9817505,0.06317139,0.3125,1.390625,-0.75
1695750399798,-0.111816406,-0.98687744,0.059020996,0.171875,1.71875,-0.46875
1695750399842,-0.11352539,-0.9751587,0.059020996,0.296875,1.328125,-0.609375
1695750399873,-0.11450195,-0.9834595,0.06414795,0.359375,1.328125,-0.46875
1695750399921,-0.10986328,-0.9859009,0.058288574,0.640625,1.453125,-0.15625
1695750399948,-0.111328125,-0.98321533,0.057800293,0.84375,1.28125,-0.125
1695750399993,-0.10498047,-0.99053955,0.06585693,0.96875,1.21875,-0.234375
1695750400037,-0.106933594,-0.97247314,0.05267334,0.109375,0.90625,-0.4375
1695750400068,-0.11816406,-0.9949341,0.066345215,0.875,0.984375,-0.28125
1695750400113,-0.11254883,-0.9783325,0.05609131,0.890625,1.296875,-0.359375
1695750400158,-0.103271484,-0.989563,0.055114746,-0.125,1.28125,-0.71875
1695750400203,-0.115234375,-0.9854126,0.058532715,1.078125,0.84375,0.015625
1695750400232,-0.10180664,-0.9758911,0.04119873,-1.171875,1.34375,-0.90625
1695750400278,-0.11401367,-0.9866333,0.050476074,-1.453125,1.40625,-0.859375
1695750400310,-0.118652344,-0.9873657,0.06585693,1.25,1.421875,-0.5
1695750400354,-0.106933594,-0.9751587,0.04510498,-0.375,1.75,-0.59375
1695750400398,-0.11303711,-0.9963989,0.051452637,0.15625,1.6875,-0.71875
1695750400427,-0.11035156,-0.97906494,0.06781006,0.640625,1.6875,-0.859375
1695750400473,-0.1081543,-0.98272705,0.050964355,-0.078125,1.46875,-0.171875
1695750400518,-0.115722656,-0.98223877,0.047790527,-0.515625,1.546875,-0.75
1695750400578,-0.11254883,-0.986145,0.06414795,0.171875,1.546875,-0.640625
1695750400607,-0.111572266,-0.9846802,0.054870605,0.125,1.484375,-0.640625
1695750400637,-0.10180664,-0.9824829,0.051208496,-0.03125,1.765625,-0.875
1695750400668,-0.109375,-0.9898071,0.055847168,-0.0625,1.453125,-0.78125
1695750400728,-0.109375,-0.98565674,0.058776855,-0.296875,1.40625,-0.734375
1695750400743,-0.10961914,-0.98394775,0.055358887,-0.375,1.40625,-0.578125
1695750400790,-0.11279297,-0.9807739,0.05657959,0.15625,1.484375,-0.515625
1695750400835,-0.111816406,-0.98150635,0.061950684,0.46875,1.21875,-0.296875
1695750400909,-0.11401367,-0.98394775,0.062194824,0.828125,1.078125,-0.15625
1695750400914,-0.107421875,-0.9780884,0.053894043,0.421875,1.265625,-0.234375
1695750400954,-0.10888672,-0.9898071,0.04901123,0.421875,1.21875,-0.390625
1695750400986,-0.107666016,-0.9849243,0.05291748,0.140625,1.296875,-0.59375
1695750401028,-0.1159668,-0.98809814,0.044128418,-0.25,1.375,-0.59375
1695750401073,-0.10644531,-0.98394775,0.055358887,0.515625,1.46875,-0.921875
1695750401118,-0.107666016,-0.98394775,0.04852295,1.125,1.421875,-0.671875
1695750401147,-0.11621094,-0.98394775,0.046081543,0.0625,1.265625,-0.546875
1695750401193,-0.09838867,-0.9734497,0.051696777,-0.5,1.8125,-1.109375
1695750401222,-0.119384766,-0.98394775,0.047302246,0.46875,1.203125,-0.078125
1695750401268,-0.09472656,-0.97979736,0.04119873,-0.84375,1.65625,-1.296875
1695750401343,-0.11303711,-0.9871216,0.055114746,0.15625,1.640625,-0.78125
1695750401347,-0.115722656,-0.98565674,0.055847168,0.5625,1.0,-1.046875
1695750401387,-0.10668945,-0.97540283,0.04119873,-0.453125,1.890625,-0.859375
1695750401417,-0.11303711,-0.99298096,0.054138184,0.328125,1.125,-0.828125
1695750401463,-0.11254883,-0.98809814,0.055358887,0.34375,1.421875,-0.546875
1695750401509,-0.109375,-0.97735596,0.051452637,0.03125,1.484375,-0.609375
1695750401540,-0.11206055,-0.97857666,0.04901123,-0.359375,1.359375,-0.671875
1695750401583,-0.1105957,-0.98638916,0.04901123,-0.03125,1.421875,-0.59375
1695750401628,-0.1081543,-0.9793091,0.039001465,-0.265625,1.8125,-0.796875
1695750401657,-0.115478516,-0.9807739,0.051940918,0.5625,1.53125,-0.5625
1695750401702,-0.12036133,-0.98638916,0.055358887,0.203125,1.25,-0.328125
1695750401748,-0.115478516,-0.986145,0.04925537,0.3125,1.453125,-0.234375
1695750401777,-0.11694336,-0.98101807,0.04827881,-0.03125,1.9375,-0.3125
1695750401824,-0.1159668,-0.98443604,0.049743652,0.609375,1.453125,-0.078125
1695750401869,-0.115722656,-0.9854126,0.054626465,0.65625,1.703125,-0.234375
1695750401898,-0.111083984,-0.98101807,0.049987793,0.078125,1.71875,-0.5
1695750401944,-0.111816406,-0.99176025,0.051208496,0.5,1.578125,-0.625
1695750401987,-0.107177734,-0.97540283,0.04901123,1.296875,1.921875,-0.578125
1695750402017,-0.111572266,-0.9783325,0.042419434,0.484375,1.5625,-0.40625
1695750402062,-0.11376953,-0.9783325,0.046813965,-0.0625,1.46875,-0.421875
1695750402114,-0.119628906,-0.9841919,0.050231934,0.3125,1.578125,-0.125
1695750402153,-0.10913086,-0.98321533,0.045837402,0.25,1.703125,-0.28125
1695750402182,-0.10424805,-0.96881104,0.051208496,0.734375,1.171875,-0.34375
1695750402228,-0.107666016,-0.9944458,0.035095215,-0.3125,1.25,0.203125
1695750402257,-0.09643555,-0.9788208,0.02923584,-1.5625,1.5625,-0.75
1695750402303,-0.11669922,-1.003479,0.062194824,0.5,1.765625,-0.375
1695750402349,-0.11230469,-0.98565674,0.03729248,0.390625,1.1875,-0.6875
1695750402377,-0.09863281,-0.9795532,0.039245605,-0.59375,1.734375,-0.953125
1695750402423,-0.115722656,-0.9841919,0.04925537,0.09375,1.265625,-0.578125
1695750402468,-0.109375,-0.9885864,0.04559326,-0.015625,1.609375,-0.359375
1695750402497,-0.099121094,-0.98150635,0.046813965,0.265625,1.296875,-0.578125
1695750402543,-0.115478516,-0.97906494,0.04876709,-0.25,1.65625,-0.484375
1695750402573,-0.10620117,-0.98809814,0.04534912,0.125,1.109375,-0.609375
1695750402618,-0.1081543,-0.9819946,0.040222168,-0.046875,1.484375,-0.734375
1695750402678,-0.11303711,-0.986145,0.04949951,-0.28125,1.03125,-0.796875
1695750402692,-0.10864258,-0.98272705,0.04046631,-0.75,1.21875,-0.640625
1695750402740,-0.1081543,-0.9871216,0.04534912,-0.75,1.25,-0.8125
1695750402782,-0.11401367,-0.98150635,0.05218506,-0.609375,1.25,-1.109375
1695750402828,-0.107910156,-0.9829712,0.043640137,-0.453125,1.46875,-1.03125
1695750402858,-0.11010742,-0.9829712,0.047058105,-0.6875,1.4375,-0.75
1695750402889,-0.109375,-0.98443604,0.054138184,-0.25,1.265625,-0.859375
1695750402935,-0.11401367,-0.9829712,0.05291748,-0.28125,1.359375,-0.734375
1695750402979,-0.10986328,-0.9795532,0.053649902,-0.015625,1.359375,-0.71875
1695750403007,-0.11743164,-0.987854,0.04852295,0.234375,1.578125,-0.625
1695750403068,-0.11279297,-0.9800415,0.04901123,0.203125,1.671875,-0.59375
1695750403098,-0.103027344,-0.9819946,0.06390381,0.59375,1.765625,-0.375
1695750403129,-0.11669922,-0.9776001,0.06097412,0.984375,1.90625,-0.328125
1695750403173,-0.11694336,-0.9883423,0.040222168,1.046875,2.0625,0.359375
1695750403234,-0.103027344,-0.97979736,0.039733887,-0.53125,2.40625,-0.65625
1695750403247,-0.12475586,-0.99346924,0.0602417,1.265625,2.125,0.25
1695750403308,-0.107910156,-0.98321533,0.049743652,0.921875,1.96875,-0.6875
1695750403356,-0.10498047,-0.9819946,0.042663574,0.3125,2.21875,-0.578125
1695750403382,-0.11230469,-0.9807739,0.051940918,0.71875,1.75,-0.765625
1695750403413,-0.10473633,-0.9795532,0.038757324,0.25,1.765625,-0.703125
1695750403473,-0.10668945,-0.9812622,0.038513184,0.234375,1.59375,-1.03125
1695750403488,-0.11352539,-0.9812622,0.04852295,0.1875,1.828125,-0.828125
1695750403533,-0.1171875,-0.98931885,0.040222168,0.296875,1.5,-0.578125
1695750403578,-0.103759766,-0.97247314,0.039489746,0.75,1.984375,-0.75
1695750403607,-0.11376953,-0.98565674,0.029968262,0.703125,1.71875,-0.625
1695750403654,-0.11694336,-0.986145,0.034606934,0.15625,1.75,-0.546875
1695750403684,-0.111816406,-0.98223877,0.030212402,0.59375,1.796875,-0.53125
1695750403728,-0.11230469,-0.9846802,0.040222168,0.6875,2.0,-0.34375
1695750403788,-0.11401367,-0.9807739,0.035339355,0.59375,1.515625,-0.53125
1695750403803,-0.107177734,-0.986145,0.039978027,0.546875,1.609375,-0.515625
1695750403848,-0.1171875,-0.98809814,0.03778076,0.765625,1.765625,-0.296875
1695750403908,-0.11010742,-0.98760986,0.034118652,0.5625,1.71875,-0.328125
1695750403955,-0.11425781,-0.9873657,0.02923584,0.890625,1.515625,-0.59375
1695750403968,-0.111572266,-0.9920044,0.028259277,-0.3125,1.890625,-0.5
1695750404014,-0.11743164,-0.98883057,0.028015137,-0.28125,1.75,-0.453125
1695750404042,-0.104003906,-0.96759033,0.03704834,-0.171875,1.671875,-1.140625
1695750404089,-0.122802734,-0.99053955,0.030456543,0.3125,1.59375,0.09375
1695750404134,-0.1003418,-0.98101807,0.023132324,-0.359375,1.734375,-0.9375
1695750404179,-0.11743164,-0.98321533,0.038024902,-0.078125,1.890625,-0.390625
1695750404207,-0.1105957,-0.9841919,0.03338623,0.890625,1.28125,-0.828125
1695750404253,-0.11035156,-0.9727173,0.024841309,-0.203125,1.953125,-0.375
1695750404282,-0.11987305,-0.99957275,0.034851074,0.359375,1.71875,-0.140625
1695750404343,-0.104003906,-0.98516846,0.027038574,0.234375,1.8125,0.0
1695750404373,-0.114746094,-0.9841919,0.03778076,0.40625,1.90625,0.046875
1695750404403,-0.106933594,-0.97906494,0.031677246,-0.140625,2.171875,-0.203125
1695750404449,-0.10107422,-0.99176025,0.038757324,0.328125,1.671875,-0.359375
1695750404478,-0.104003906,-0.9746704,0.022155762,0.03125,1.78125,-0.328125
1695750404523,-0.1105957,-0.9885864,0.035827637,0.28125,1.8125,-0.359375
1695750404568,-0.10473633,-0.9859009,0.030944824,0.078125,2.28125,-0.671875
1695750404598,-0.11035156,-0.98931885,0.03314209,0.140625,2.109375,-0.046875
1695750404644,-0.09667969,-0.97198486,0.02947998,0.3125,2.078125,-0.65625
1695750404689,-0.10473633,-0.9871216,0.03363037,0.0625,2.109375,-0.484375
1695750404717,-0.099853516,-0.98516846,0.02508545,0.765625,1.921875,-0.359375
1695750404763,-0.10205078,-0.98101807,0.02557373,0.703125,1.59375,-0.171875
1695750404809,-0.10180664,-0.9849243,0.029724121,0.484375,1.578125,-0.3125
1695750404837,-0.10522461,-0.9883423,0.0289917,0.53125,1.46875,-0.078125
1695750404883,-0.106933594,-0.9834595,0.02557373,0.75,1.125,-0.265625
1695750404928,-0.103515625,-0.9795532,0.03338623,0.390625,1.53125,-0.546875
1695750404957,-0.11791992,-0.9812622,0.035583496,0.53125,1.34375,0.0625
1695750405033,-0.104003906,-0.98394775,0.010681152,0.03125,1.671875,-0.46875
1695750405048,-0.107421875,-0.9771118,0.018981934,-0.453125,1.71875,-0.734375
1695750405094,-0.107910156,-0.9859009,0.031677246,1.015625,1.953125,-0.328125
1695750405123,-0.09326172,-0.973938,0.028503418,0.203125,2.3125,-0.78125
1695750405153,-0.111328125,-0.99591064,0.026550293,1.09375,2.328125,-0.484375
1695750405228,-0.1027832,-0.9866333,0.03387451,1.53125,2.5,-0.34375
1695750405245,-0.10058594,-0.9734497,0.018249512,0.875,2.40625,0.0
1695750405275,-0.10131836,-0.9829712,0.010192871,0.09375,2.03125,-0.328125
1695750405318,-0.10644531,-0.9898071,0.02142334,0.234375,2.234375,0.0625
1695750405363,-0.10083008,-0.9846802,0.016052246,0.40625,2.09375,0.03125
1695750405394,-0.100097656,-0.9805298,0.018737793,0.421875,2.15625,-0.453125
1695750405438,-0.09863281,-0.9883423,0.010925293,-0.59375,1.71875,-0.203125
1695750405483,-0.10205078,-0.9817505,0.018981934,-0.359375,1.734375,-0.53125
1695750405543,-0.10058594,-0.9859009,0.021911621,-0.015625,1.453125,-0.71875
1695750405559,-0.09765625,-0.98394775,0.026062012,-0.703125,1.21875,-0.875
1695750405618,-0.099853516,-0.9800415,0.018249512,-0.625,1.203125,-1.140625
1695750405633,-0.096191406,-0.9780884,0.01751709,-0.984375,0.828125,-1.28125
1695750405679,-0.09765625,-0.9812622,0.022155762,-1.546875,0.96875,-2.125
1695750405738,-0.11645508,-0.9859009,0.029724121,-0.0625,1.515625,-1.859375
1695750405752,-0.107421875,-0.9951782,0.030456543,0.625,1.71875,-1.53125
1695750405799,-0.1184082,-0.98272705,0.027526855,-0.34375,1.234375,-0.984375
1695750405844,-0.09741211,-0.97906494,0.034118652,-0.765625,1.53125,-1.703125
1695750405874,-0.11279297,-0.99224854,0.024353027,1.109375,1.625,0.0
1695750405918,-0.09448242,-0.9817505,0.014343262,0.5,1.921875,-0.421875
1695750405947,-0.11425781,-0.9807739,0.020446777,0.71875,1.328125,0.484375
1695750405995,-0.11669922,-0.9873657,0.01361084,0.484375,0.890625,0.75
1695750406038,-0.09643555,-0.9714966,0.011169434,-1.1875,1.21875,0.5
1695750406113,-0.11206055,-0.99957275,0.025817871,-1.765625,0.953125,0.609375
1695750406118,-0.103027344,-0.98883057,0.016296387,-0.140625,0.8125,0.578125
1695750406157,-0.095703125,-0.9729614,0.02508545,-0.46875,1.859375,-0.265625
1695750406188,-0.1003418,-0.9854126,0.02557373,-1.15625,1.59375,-0.609375
1695750406234,-0.10205078,-0.9873657,0.027770996,-0.34375,1.59375,-0.8125
1695750406278,-0.10205078,-0.9871216,0.024108887,-1.09375,2.046875,-1.203125
1695750406307,-0.10620117,-0.9902954,0.030944824,-0.40625,1.65625,-1.09375
1695750406354,-0.106933594,-0.97613525,0.034362793,-1.453125,1.828125,-1.40625
1695750406401,-0.107421875,-0.99346924,0.043884277,-0.8125,1.625,-0.859375
1695750406428,-0.10546875,-0.9795532,0.03363037,-1.0625,1.78125,-1.109375
1695750406472,-0.095214844,-0.98223877,0.034606934,-1.375,1.609375,-1.140625
1695750406518,-0.111572266,-0.9837036,0.03314209,-1.03125,1.578125,-1.234375
1695750406547,-0.10498047,-0.98272705,0.030700684,-1.0625,1.765625,-1.203125
1695750406593,-0.10644531,-0.9846802,0.03753662,-0.9375,1.3125,-1.125
1695750406623,-0.11376953,-0.97369385,0.029724121,-1.078125,1.46875,-0.828125
1695750406668,-0.099121094,-0.975647,0.04559326,0.125,1.421875,-1.140625
1695750406713,-0.11791992,-0.9841919,0.035827637,0.046875,1.1875,-0.53125
1695750406742,-0.09887695,-0.97662354,0.0289917,-1.5,1.8125,-1.546875
1695750406788,-0.12866211,-0.9963989,0.055603027,0.125,1.84375,-0.5
1695750406833,-0.11328125,-0.9841919,0.05218506,0.234375,1.859375,-1.15625
1695750406863,-0.10522461,-0.97491455,0.03656006,-0.328125,2.40625,-0.796875
1695750406908,-0.11401367,-0.98516846,0.043884277,-0.65625,2.03125,-0.703125
1695750406953,-0.11376953,-0.9729614,0.036315918,-0.046875,2.421875,-0.734375
1695750406982,-0.10913086,-0.98443604,0.04437256,-0.203125,2.28125,-0.796875
1695750407027,-0.12036133,-0.9817505,0.046081543,-0.09375,2.671875,-0.890625
1695750407072,-0.114746094,-0.9871216,0.046081543,-0.21875,2.4375,-1.140625
1695750407118,-0.11303711,-0.9846802,0.038513184,-0.375,2.796875,-1.078125
1695750407147,-0.111328125,-0.9788208,0.039001465,0.171875,2.546875,-1.09375
1695750407208,-0.110839844,-0.9871216,0.04534912,-0.140625,2.375,-1.328125
1695750407223,-0.12036133,-0.9783325,0.04437256,0.0,2.21875,-0.765625
1695750407269,-0.111572266,-0.9758911,0.038757324,-0.078125,1.8125,-0.765625
1695750407314,-0.11743164,-0.986145,0.051940918,0.21875,1.984375,-0.453125
1695750407342,-0.10620117,-0.9783325,0.043151855,0.859375,2.203125,-0.6875
1695750407388,-0.11987305,-0.9824829,0.047546387,0.25,2.0,0.015625
1695750407419,-0.12231445,-0.9885864,0.046569824,-0.453125,1.9375,-0.234375
1695750407463,-0.11328125,-0.9819946,0.04925537,0.203125,2.796875,-0.140625
1695750407507,-0.10913086,-0.97662354,0.04486084,0.5625,2.265625,-0.140625
1695750407538,-0.1171875,-0.9920044,0.032409668,0.296875,1.84375,0.203125
1695750407583,-0.103271484,-0.9883423,0.031433105,-1.828125,2.015625,-0.484375
1695750407628,-0.11254883,-0.99346924,0.05267334,-2.015625,1.390625,-0.390625
1695750407658,-0.123535156,-0.9907837,0.0524292,-2.21875,1.515625,-0.953125
1695750407704,-0.10546875,-0.97662354,0.047790527,-1.203125,1.6875,-0.734375
1695750407748,-0.10644531,-0.9837036,0.051696777,-1.734375,1.34375,-0.34375
1695750407793,-0.10961914,-0.98394775,0.04876709,-1.765625,1.265625,0.03125
1695750407823,-0.1003418,-0.9846802,0.04486084,-1.265625,1.265625,-0.140625
1695750407868,-0.1081543,-0.97052,0.051696777,-1.328125,0.921875,-0.15625
1695750407897,-0.11450195,-0.98321533,0.0524292,-0.078125,0.609375,-0.296875
1695750407943,-0.119140625,-0.97076416,0.062683105,-0.4375,0.625,-0.3125
1695750407989,-0.122802734,-0.9846802,0.062927246,0.3125,0.859375,-0.25
1695750408017,-0.1262207,-0.97857666,0.055603027,0.09375,1.4375,-0.0625
1695750408065,-0.11352539,-0.97442627,0.051696777,1.15625,1.671875,-0.46875
1695750408092,-0.11254883,-0.98223877,0.05340576,1.53125,1.8125,-0.296875
1695750408138,-0.11279297,-0.9751587,0.050720215,1.1875,1.640625,-0.890625
1695750408184,-0.11669922,-0.9758911,0.04486084,1.265625,1.765625,-0.984375
1695750408212,-0.107910156,-0.98760986,0.054870605,1.234375,1.34375,-0.625
1695750408274,-0.119384766,-0.9812622,0.04876709,0.453125,1.625,-0.46875
1695750408318,-0.11694336,-0.9902954,0.04486084,1.234375,1.421875,-0.5625
1695750408348,-0.10839844,-0.9890747,0.04437256,0.4375,2.21875,-0.734375
1695750408380,-0.12060547,-0.98638916,0.055847168,1.53125,2.328125,-0.265625
1695750408424,-0.111083984,-0.9859009,0.039001465,0.90625,2.59375,-0.71875
1695750408453,-0.111083984,-0.975647,0.039733887,-0.3125,2.40625,-1.171875
1695750408499,-0.12841797,-1.00177,0.06072998,-0.15625,2.234375,-0.890625
1695750408543,-0.1027832,-0.97247314,0.043395996,-0.1875,3.09375,-1.53125
1695750408572,-0.114990234,-0.9961548,0.04144287,-0.96875,2.953125,-1.25
1695750408618,-0.1105957,-0.98443604,0.03656006,-0.765625,2.359375,-1.5
1695750408663,-0.111572266,-0.9837036,0.05267334,-0.953125,2.359375,-1.34375
1695750408693,-0.11303711,-0.989563,0.059509277,-1.4375,2.453125,-1.28125
1695750408738,-0.11743164,-0.9834595,0.047546387,-1.203125,2.046875,-1.3125
1695750408814,-0.1105957,-0.98150635,0.043640137,-1.59375,1.921875,-1.328125
1695750408820,-0.12207031,-0.98516846,0.05267334,-1.265625,1.828125,-1.171875
1695750408858,-0.10644531,-0.9846802,0.047546387,-0.75,1.734375,-1.53125
1695750408890,-0.115478516,-0.9807739,0.04559326,-0.65625,1.34375,-1.09375
1695750408933,-0.10888672,-0.9717407,0.042175293,-0.484375,1.0625,-0.75
1695750408978,-0.125,-0.9824829,0.047790527,-0.375,0.765625,-0.328125
1695750409008,-0.11376953,-0.98223877,0.053649902,0.609375,1.234375,-0.484375
1695750409083,-0.1184082,-0.9795532,0.046813965,0.796875,0.921875,-0.109375
1695750409097,-0.118652344,-0.9824829,0.054626465,0.703125,1.5,-0.109375
1695750409128,-0.12060547,-0.98321533,0.047546387,1.328125,1.78125,0.296875
1695750409173,-0.12036133,-0.9817505,0.05999756,1.84375,1.96875,0.4375
1695750409233,-0.123291016,-0.9763794,0.058044434,1.984375,2.015625,0.109375
1695750409248,-0.12451172,-0.99053955,0.055603027,2.96875,2.296875,0.40625
1695750409293,-0.10522461,-0.98223877,0.032409668,1.78125,2.09375,-0.265625
1695750409339,-0.11816406,-0.97613525,0.04168701,-0.09375,1.5625,-0.3125
1695750409367,-0.12451172,-0.9939575,0.054870605,1.359375,1.671875,-0.140625
1695750409413,-0.115234375,-0.9807739,0.0368042,0.90625,2.0625,-0.390625
1695750409458,-0.1184082,-0.989563,0.042907715,1.34375,1.53125,-0.1875
1695750409488,-0.10913086,-0.9758911,0.034851074,0.90625,1.265625,-0.765625
1695750409533,-0.1237793,-0.9834595,0.03338623,0.640625,1.328125,-0.265625
1695750409594,-0.114746094,-0.9849243,0.03387451,0.078125,1.21875,-0.546875
1695750409607,-0.11279297,-0.9805298,0.031433105,0.109375,1.46875,-0.671875
1695750409653,-0.12182617,-0.98638916,0.034851074,0.0625,1.53125,-0.53125
1695750409683,-0.10449219,-0.97052,0.029724121,0.046875,1.359375,-1.0625
1695750409729,-0.11621094,-0.98638916,0.042175293,0.25,1.375,-0.75
1695750409773,-0.1171875,-0.98272705,0.02947998,0.484375,1.65625,-0.703125
1695750409803,-0.1105957,-0.9834595,0.036071777,0.6875,1.921875,-0.484375
1695750409849,-0.119140625,-0.9837036,0.035339355,0.890625,1.921875,-0.359375
1695750409893,-0.111328125,-0.9859009,0.026550293,1.203125,2.4375,-0.390625
1695750409926,-0.10644531,-0.9837036,0.029724121,0.921875,1.890625,-0.390625
1695750409968,-0.10571289,-0.9807739,0.025817871,0.1875,1.71875,-0.453125
1695750410013,-0.115234375,-0.9819946,0.026062012,1.09375,1.828125,-0.1875
1695750410075,-0.111816406,-0.9807739,0.023864746,0.859375,1.484375,-0.546875
1695750410087,-0.10864258,-0.9871216,0.027282715,0.359375,1.921875,-0.5
1695750410136,-0.11767578,-0.96539307,0.028747559,0.59375,1.53125,-0.59375
1695750410163,-0.10595703,-0.9768677,0.01751709,1.234375,1.78125,-0.5625
1695750410208,-0.11376953,-0.986145,0.012634277,0.546875,2.375,-0.421875
1695750410254,-0.10913086,-0.9890747,0.015563965,-0.34375,1.328125,-0.671875
1695750410283,-0.1171875,-0.98223877,0.023132324,0.234375,2.015625,-0.390625
1695750410363,-0.099365234,-0.9846802,0.017028809,-0.046875,2.125,-0.625
1695750410368,-0.107177734,-0.9834595,0.012390137,0.640625,1.625,-0.640625
1695750410404,-0.11401367,-0.97979736,0.026062012,0.171875,1.875,-0.65625
1695750410449,-0.11791992,-0.98223877,0.019714355,0.703125,1.375,-0.375
1695750410478,-0.11010742,-0.98150635,0.018249512,-0.3125,1.25,-0.71875
1695750410524,-0.115478516,-0.97613525,0.0211792,-0.75,1.359375,-0.640625
1695750410570,-0.110839844,-0.99542236,0.014343262,0.5,2.0625,-0.203125
1695750410597,-0.11035156,-0.9685669,0.009460449,0.46875,1.9375,-0.59375
1695750410643,-0.10961914,-0.9898071,0.015808105,0.28125,1.640625,-0.390625
1695750410688,-0.115722656,-0.9846802,0.0119018555,0.328125,1.8125,-0.546875
1695750410733,-0.10253906,-0.9837036,0.016784668,1.21875,2.1875,-0.484375
1695750410762,-0.11987305,-0.98443604,0.01776123,0.65625,2.328125,-0.484375
1695750410809,-0.119384766,-0.9871216,0.015075684,0.109375,1.703125,-0.296875
1695750410852,-0.10913086,-0.98028564,0.023864746,0.53125,1.984375,-0.5
1695750410882,-0.109375,-0.9956665,0.012634277,1.453125,2.203125,0.265625
1695750410928,-0.115722656,-0.97735596,0.011169434,0.359375,1.484375,-0.28125
1695750410958,-0.10986328,-0.98883057,0.008239746,0.5,1.84375,-0.234375
1695750411003,-0.103759766,-0.97735596,0.0067749023,0.5,1.875,-0.6875
1695750411048,-0.12036133,-0.9924927,0.0060424805,0.984375,1.140625,0.265625
1695750411078,-0.091552734,-0.97540283,0.007019043,0.71875,1.71875,-0.609375
1695750411126,-0.12792969,-0.9944458,0.0067749023,0.109375,0.9375,-0.140625
1695750411152,-0.10595703,-0.97198486,0.011657715,-1.765625,1.453125,-1.75
1695750411198,-0.11791992,-0.9915161,0.018493652,-1.359375,2.296875,-1.171875
1695750411243,-0.11645508,-0.9837036,0.018981934,-0.84375,1.984375,-1.65625
1695750411319,-0.114746094,-0.975647,0.014099121,-1.078125,1.8125,-1.46875
1695750411324,-0.1171875,-0.98760986,0.018493652,-0.015625,1.265625,-1.03125
1695750411379,-0.11376953,-0.98321533,0.0138549805,-0.171875,0.953125,-0.875
1695750411393,-0.10668945,-0.9795532,0.014099121,-0.5,0.28125,-1.40625
1695750411439,-0.12133789,-0.9824829,0.018005371,-0.296875,0.75,-1.03125
1695750411483,-0.11206055,-0.9976196,0.019714355,0.25,0.90625,-0.875
1695750411512,-0.11425781,-0.97076416,0.006286621,-0.140625,0.65625,-1.0
1695750411558,-0.114990234,-0.9812622,0.019470215,-0.046875,0.296875,-1.21875
1695750411634,-0.12109375,-0.98272705,0.012145996,-1.171875,0.53125,-1.71875
1695750411638,-0.12670898,-0.9780884,0.0138549805,-1.078125,0.71875,-2.046875
1695750411680,-0.12426758,-0.97442627,0.017028809,-0.84375,-0.078125,-2.296875
1695750411754,-0.1352539,-0.9859009,0.032409668,-0.140625,-0.78125,-1.375
1695750411760,-0.12939453,-0.991272,0.028259277,0.75,0.6875,-0.34375
1695750411814,-0.12158203,-0.9829712,0.018493652,1.640625,1.71875,-0.5
1695750411830,-0.125,-0.99591064,0.023132324,2.3125,2.3125,0.453125
1695750411873,-0.119384766,-0.9783325,0.0045776367,2.984375,0.703125,0.421875
1695750411918,-0.12133789,-0.9763794,-0.008361816,1.5,1.515625,0.34375
1695750411948,-0.123291016,-0.9944458,0.0053100586,1.359375,1.015625,-0.3125
1695750411993,-0.1237793,-0.9968872,-0.0051879883,1.765625,2.03125,0.25
1695750412039,-0.123046875,-0.97613525,-0.0044555664,1.4375,2.078125,0.734375
1695750412068,-0.115478516,-0.98565674,-0.003479004,-0.953125,1.609375,-0.265625
1695750412130,-0.123291016,-0.98638916,0.0033569336,-1.796875,1.671875,-0.296875
1695750412157,-0.11376953,-0.9854126,0.011657715,-0.421875,1.5625,-0.21875
1695750412188,-0.10546875,-0.9812622,-0.00592041,-0.28125,2.0625,0.359375
1695750412233,-0.11328125,-0.97735596,0.0021362305,-0.28125,1.390625,0.3125
1695750412278,-0.10424805,-0.98223877,0.0053100586,0.046875,0.1875,0.46875
1695750412307,-0.114746094,-0.96954346,0.0053100586,-1.453125,0.453125,0.109375
1695750412354,-0.12866211,-0.9883423,0.016296387,-1.65625,0.171875,0.359375
1695750412398,-0.11669922,-0.9807739,0.018981934,-0.34375,0.375,0.640625
1695750412427,-0.1027832,-0.97613525,0.008728027,-1.703125,1.25,0.546875
1695750412473,-0.09741211,-0.9805298,0.0079956055,-2.0,0.90625,-0.5625
1695750412519,-0.107421875,-0.99053955,0.018249512,-0.828125,0.890625,-0.234375
1695750412551,-0.10253906,-0.972229,0.010925293,-0.84375,1.0625,-0.828125
1695750412593,-0.106933594,-0.97906494,0.011657715,-1.484375,0.9375,-0.75
1695750412622,-0.111328125,-0.987854,0.024597168,-0.390625,0.578125,-0.984375
1695750412668,-0.10424805,-0.9834595,0.01751709,-0.375,1.265625,-0.84375
1695750412728,-0.114990234,-0.9846802,0.01727295,-0.65625,0.921875,-0.59375
1695750412742,-0.11621094,-0.98394775,0.028747559,-0.484375,0.96875,-0.953125
1695750412803,-0.11645508,-0.99005127,0.026062012,0.15625,0.796875,-0.5
1695750412831,-0.1015625,-0.9859009,0.023864746,-0.046875,1.328125,-0.984375
1695750412862,-0.115234375,-0.98150635,0.016052246,0.546875,1.296875,-0.375
1695750412923,-0.10473633,-0.98565674,0.011169434,-0.796875,1.875,-1.03125
1695750412953,-0.099121094,-0.96954346,0.007751465,-1.15625,0.890625,-1.25
1695750412983,-0.11987305,-0.99224854,0.030700684,0.015625,0.5625,-0.890625
1695750413029,-0.11767578,-0.97491455,0.021911621,-0.328125,1.5625,-0.71875
1695750413075,-0.10424805,-0.986145,0.023376465,-0.53125,1.296875,-1.515625
1695750413103,-0.12109375,-0.9939575,0.027526855,0.203125,1.359375,-0.25
1695750413148,-0.11035156,-0.9678345,0.013366699,0.484375,1.5,-0.625
1695750413193,-0.106933594,-0.9819946,0.0138549805,-0.578125,1.265625,-0.84375
1695750413222,-0.118652344,-0.9898071,0.030212402,-0.234375,1.75,-1.1875
1695750413268,-0.119384766,-0.98150635,0.016296387,-0.0625,1.53125,-0.765625
1695750413297,-0.107666016,-0.98150635,0.019226074,-0.359375,1.90625,-0.6875
1695750413343,-0.12451172,-1.0007935,0.019714355,0.625,1.578125,-0.265625
1695750413387,-0.103515625,-0.96539307,0.011413574,0.359375,1.34375,-0.796875
1695750413417,-0.123535156,-0.98883057,0.016784668,-0.296875,1.421875,-0.171875
1695750413463,-0.11743164,-0.98687744,0.02166748,0.203125,1.5,-0.5625
1695750413543,-0.11376953,-0.9817505,0.023376465,-0.15625,1.546875,-0.328125
1695750413547,-0.12158203,-0.9915161,0.020690918,-0.078125,1.4375,-0.109375
1695750413585,-0.114746094,-0.97979736,0.014343262,0.03125,1.4375,-0.234375
1695750413628,-0.10961914,-0.9805298,0.018981934,-0.171875,1.359375,-0.078125
1695750413658,-0.12182617,-0.9829712,0.019226074,-0.390625,1.34375,0.09375
1695750413704,-0.111083984,-0.98272705,0.031188965,0.625,1.953125,-0.125
1695750413749,-0.11352539,-0.9837036,0.008483887,-0.328125,1.859375,-0.171875
1695750413777,-0.1027832,-0.97662354,0.007751465,-1.8125,1.21875,-1.140625
1695750413823,-0.115722656,-0.9951782,0.030944824,-0.3125,1.359375,-0.671875
1695750413868,-0.10620117,-0.987854,0.018493652,0.0625,1.484375,-0.875
1695750413898,-0.11669922,-0.9824829,0.016784668,-0.25,1.5,-0.453125
1695750413943,-0.1184082,-0.9924927,0.02166748,-0.265625,1.421875,-0.828125
1695750413988,-0.10888672,-0.9883423,0.0119018555,-0.640625,1.53125,-0.625
1695750414033,-0.1027832,-0.9734497,0.019958496,-0.59375,0.953125,-0.75
1695750414062,-0.12451172,-0.98150635,0.0211792,-0.484375,1.390625,-0.53125
1695750414092,-0.11401367,-0.98687744,0.020446777,-0.234375,1.640625,-0.796875
1695750414139,-0.10668945,-0.9741821,0.018737793,-0.578125,1.5,-0.75
1695750414198,-0.10986328,-0.9898071,0.020935059,-0.65625,1.078125,-0.90625
1695750414217,-0.11328125,-0.98638916,0.0211792,-0.6875,1.4375,-0.53125
1695750414257,-0.11791992,-0.9859009,0.022155762,-0.65625,1.46875,-0.5625
1695750414303,-0.107910156,-0.986145,0.023620605,-0.296875,1.640625,-0.515625
1695750414335,-0.111328125,-0.9829712,0.022888184,-0.703125,1.171875,-0.4375
1695750414378,-0.114990234,-0.989563,0.0289917,-0.90625,1.09375,-0.1875
1695750414438,-0.10595703,-0.9837036,0.029724121,-0.53125,1.296875,-0.09375
1695750414453,-0.111083984,-0.9788208,0.029724121,-1.234375,1.140625,-0.234375
1695750414498,-0.115234375,-0.99224854,0.040222168,-1.109375,1.34375,-0.171875
1695750414544,-0.10961914,-0.9685669,0.02923584,-0.96875,1.578125,-0.265625
1695750414572,-0.1015625,-0.973938,0.040222168,-0.96875,1.1875,-0.625
1695750414621,-0.10864258,-0.989563,0.03265381,-0.84375,1.25,-0.609375
1695750414663,-0.09667969,-0.97491455,0.027770996,-2.296875,1.4375,-1.265625
1695750414692,-0.11401367,-0.98809814,0.054626465,-1.6875,1.640625,-1.5
1695750414738,-0.10498047,-0.9898071,0.044128418,-1.65625,1.625,-2.046875
1695750414784,-0.11621094,-0.98101807,0.05609131,-0.609375,1.96875,-2.015625
1695750414812,-0.115234375,-0.9890747,0.049987793,-0.015625,1.4375,-1.28125
1695750414859,-0.1171875,-0.9763794,0.051452637,-0.21875,1.390625,-1.046875
1695750414887,-0.11328125,-0.9841919,0.053894043,-0.078125,1.421875,-0.703125
1695750414933,-0.1171875,-0.9817505,0.05291748,-0.5625,1.4375,-0.71875
1695750414994,-0.125,-0.9898071,0.05731201,-0.8125,1.234375,-0.609375
1695750415009,-0.10620117,-0.9800415,0.04949951,-1.921875,0.796875,-0.953125
1695750415053,-0.119384766,-0.9837036,0.051940918,-1.78125,0.796875,-0.875
1695750415098,-0.12573242,-0.9849243,0.05218506,-1.03125,1.390625,-0.296875
1695750415128,-0.11206055,-0.9846802,0.050476074,1.125,1.921875,0.25
1695750415189,-0.11303711,-0.9793091,0.04510498,2.03125,2.125,0.703125
1695750415217,-0.122558594,-0.98150635,0.038024902,-0.34375,1.4375,0.515625
1695750415251,-0.11010742,-0.98101807,0.059509277,-1.703125,2.015625,0.28125
1695750415293,-0.10864258,-0.987854,0.055114746,-0.6875,0.59375,0.46875
1695750415354,-0.118652344,-0.9788208,0.051696777,-0.625,0.640625,-0.15625
1695750415367,-0.10449219,-0.98028564,0.050720215,-0.46875,1.40625,-0.078125
1695750415413,-0.12011719,-0.9841919,0.06121826,-1.09375,1.21875,-0.421875
1695750415475,-0.11376953,-0.9866333,0.06414795,0.40625,1.734375,-0.921875
1695750415488,-0.1184082,-0.9710083,0.058776855,0.453125,1.828125,-0.84375
1695750415533,-0.111572266,-0.9846802,0.04071045,-1.0,1.828125,-1.171875
1695750415563,-0.111328125,-0.97735596,0.047302246,-1.5625,1.3125,-1.78125
1695750415608,-0.12231445,-0.98638916,0.06707764,-0.28125,1.671875,-1.59375
1695750415653,-0.104003906,-0.9793091,0.06536865,-0.03125,1.71875,-1.84375
1695750415683,-0.12475586,-0.98443604,0.05682373,0.125,1.546875,-1.40625
1695750415728,-0.1081543,-0.9746704,0.061950684,0.3125,1.734375,-1.359375
1695750415773,-0.12182617,-0.9885864,0.055114746,0.09375,1.78125,-0.703125
1695750415802,-0.10913086,-0.9717407,0.051208496,-0.140625,1.3125,-1.296875
1695750415851,-0.12231445,-0.986145,0.05340576,-0.015625,0.953125,-0.5625
1695750415896,-0.11743164,-1.0007935,0.062683105,0.171875,1.140625,-0.90625
1695750415923,-0.10961914,-0.9631958,0.0446167,-0.328125,1.4375,-1.046875
1695750415968,-0.14160156,-0.9976196,0.059509277,0.484375,0.90625,-0.484375
1695750416013,-0.12011719,-0.97320557,0.055114746,-0.0625,1.359375,-0.921875
1695750416042,-0.12988281,-0.9846802,0.05682373,-0.328125,1.65625,-0.65625
1695750416088,-0.1274414,-0.98321533,0.054138184,0.015625,1.828125,-0.875
1695750416133,-0.123535156,-0.9817505,0.05291748,0.171875,2.046875,-0.6875
1695750416164,-0.123291016,-0.98321533,0.049743652,-0.046875,1.875,-0.46875
1695750416211,-0.12597656,-0.98223877,0.057800293,0.09375,1.6875,-0.46875
1695750416253,-0.12548828,-0.9824829,0.046325684,-0.109375,1.421875,-0.34375
1695750416282,-0.12915039,-0.98931885,0.053649902,0.3125,1.453125,-0.40625
1695750416327,-0.1159668,-0.9829712,0.051696777,0.0,1.828125,-0.890625
1695750416357,-0.11987305,-0.98883057,0.062194824,0.359375,1.546875,0.078125
1695750416404,-0.118896484,-0.9854126,0.046325684,-0.5,1.765625,-0.484375
1695750416448,-0.12158203,-0.98028564,0.0524292,-1.3125,1.328125,-0.671875
1695750416524,-0.13208008,-0.9951782,0.06365967,0.421875,1.359375,-0.1875
1695750416528,-0.1171875,-0.9734497,0.045837402,-0.609375,1.890625,-0.5
1695750416569,-0.12475586,-0.98687744,0.055847168,0.203125,1.78125,-0.25
1695750416598,-0.1274414,-0.98150635,0.06854248,0.0,1.796875,-0.546875
1695750416643,-0.119628906,-0.9758911,0.053649902,-0.015625,1.671875,-0.53125
1695750416688,-0.11816406,-0.97784424,0.054870605,-0.640625,0.9375,-0.765625
1695750416764,-0.12573242,-0.9944458,0.07220459,-0.03125,1.6875,-0.5625
1695750416769,-0.12182617,-0.98028564,0.04827881,0.296875,1.59375,-0.40625
1695750416807,-0.1171875,-0.98883057,0.05706787,0.21875,1.28125,-0.453125
1695750416853,-0.12695312,-0.98394775,0.06121826,0.171875,1.640625,-0.40625
1695750416883,-0.1171875,-0.9805298,0.06072998,-0.125,1.9375,-0.3125
1695750416989,-0.122558594,-0.99420166,0.057556152,-0.296875,1.546875,-0.625
1695750416994,-0.11352539,-0.97662354,0.054626465,0.078125,1.875,-0.390625
1695750417004,-0.111572266,-0.9871216,0.058532715,-0.46875,1.75,-0.578125
1695750417035,-0.114746094,-0.9788208,0.06048584,-0.390625,1.53125,-0.671875
1695750417079,-0.11450195,-0.9812622,0.06854248,-0.359375,1.6875,-0.609375
1695750417122,-0.114746094,-0.98101807,0.06488037,-0.140625,1.40625,-0.46875
1695750417152,-0.118652344,-0.9780884,0.06365967,-0.1875,1.625,-0.375
1695750417198,-0.1159668,-0.9829712,0.06732178,-0.53125,1.5625,-0.390625
1695750417244,-0.115722656,-0.97613525,0.07196045,-0.125,1.75,-0.53125
1695750417273,-0.119384766,-0.98883057,0.058532715,-0.21875,1.4375,0.015625
1695750417318,-0.11010742,-0.9780884,0.05999756,-1.40625,1.8125,-0.6875
1695750417363,-0.1237793,-0.989563,0.07318115,-0.1875,1.796875,-0.109375
1695750417394,-0.11206055,-0.9854126,0.066101074,-0.875,1.734375,-0.484375
1695750417440,-0.10864258,-0.97662354,0.059020996,-0.125,1.765625,-0.53125
1695750417483,-0.115478516,-0.98565674,0.061462402,-0.1875,1.5625,-0.0625
1695750417512,-0.119628906,-0.9768677,0.06512451,0.140625,1.453125,0.3125
1695750417558,-0.115722656,-0.98101807,0.058776855,-0.140625,1.328125,0.09375
1695750417604,-0.11669922,-0.9883423,0.0770874,-0.046875,1.84375,0.046875
1695750417633,-0.10546875,-0.9834595,0.062194824,0.265625,1.625,-0.234375
1695750417678,-0.11035156,-0.97320557,0.05999756,0.09375,1.578125,-0.375
1695750417723,-0.115234375,-0.98272705,0.059509277,0.703125,1.828125,-0.328125
1695750417754,-0.12060547,-0.9932251,0.062683105,0.03125,1.875,-0.40625
1695750417798,-0.12207031,-0.9795532,0.057800293,0.328125,2.125,-0.65625
1695750417828,-0.114990234,-0.9771118,0.062194824,0.15625,1.921875,-0.4375
1695750417873,-0.11352539,-0.9907837,0.059509277,-0.5,1.796875,-0.671875
1695750417918,-0.115722656,-0.9963989,0.070739746,0.59375,2.296875,-0.328125
1695750417948,-0.10131836,-0.9758911,0.066345215,0.328125,1.875,-0.40625
1695750417993,-0.104003906,-0.991272,0.059265137,-0.25,1.625,-0.375
1695750418038,-0.109375,-0.9866333,0.058776855,-0.046875,1.4375,-0.59375
1695750418067,-0.119628906,-0.98760986,0.06414795,-0.0625,1.609375,-0.578125
1695750418113,-0.11401367,-0.9758911,0.06878662,0.515625,1.6875,-0.71875
1695750418158,-0.12084961,-0.9824829,0.070007324,0.359375,1.953125,-0.515625
1695750418187,-0.10644531,-0.99542236,0.046569824,0.21875,2.140625,-0.453125
1695750418235,-0.10253906,-0.9651489,0.05316162,-1.28125,1.703125,-1.0
1695750418279,-0.12060547,-0.99468994,0.066589355,0.203125,1.6875,-0.078125
1695750418323,-0.1027832,-0.99176025,0.058532715,0.21875,2.109375,-0.921875
1695750418368,-0.10839844,-0.97735596,0.054138184,0.28125,1.328125,-0.421875
1695750418397,-0.11816406,-0.97906494,0.06585693,-0.40625,1.34375,-0.59375
1695750418428,-0.11669922,-0.9859009,0.062438965,0.171875,1.703125,-0.140625
1695750418474,-0.10180664,-0.98028564,0.06439209,-0.1875,1.359375,-0.578125
1695750418502,-0.11401367,-0.98638916,0.06390381,-0.125,1.546875,-0.234375
1695750418548,-0.1159668,-0.99664307,0.054138184,-0.171875,1.609375,-0.359375
1695750418592,-0.10449219,-0.98223877,0.058776855,0.34375,1.4375,-0.578125
1695750418623,-0.10986328,-0.9859009,0.066345215,-0.234375,1.828125,-0.375
1695750418668,-0.11767578,-0.9846802,0.059753418,-0.140625,1.6875,-0.734375
1695750418713,-0.1159668,-0.9793091,0.059265137,-0.21875,1.953125,-0.671875
1695750418743,-0.10668945,-0.97662354,0.062683105,0.046875,1.984375,-0.796875
1695750418788,-0.107666016,-0.9873657,0.06414795,-0.359375,1.875,-0.90625
1695750418835,-0.11279297,-0.9824829,0.05999756,0.09375,1.5625,-0.84375
1695750418863,-0.11254883,-0.98394775,0.066101074,-0.171875,1.65625,-0.46875
1695750418907,-0.12036133,-0.9734497,0.06097412,-0.046875,1.546875,-0.6875
1695750418954,-0.115478516,-0.98809814,0.06488037,-0.234375,1.390625,-0.40625
1695750418982,-0.11376953,-0.9807739,0.06365967,-0.078125,1.453125,-0.703125
1695750419028,-0.11035156,-0.9768677,0.06903076,0.375,1.546875,-0.46875
1695750419073,-0.10620117,-0.98150635,0.07293701,0.96875,1.6875,-0.359375
1695750419103,-0.107666016,-0.97735596,0.050964355,0.390625,2.265625,-0.46875
1695750419150,-0.111816406,-0.9907837,0.06072998,-1.6875,1.9375,-0.625
1695750419194,-0.122558594,-0.99176025,0.08050537,-0.125,1.90625,-0.46875
1695750419223,-0.10668945,-0.9783325,0.059509277,-0.671875,2.515625,-0.78125
1695750419268,-0.111328125,-0.99053955,0.06561279,-0.828125,2.421875,-0.796875
1695750419313,-0.11010742,-0.98223877,0.06903076,-0.15625,1.875,-0.515625
1695750419373,-0.11401367,-0.98565674,0.066833496,-0.375,1.78125,-0.234375
1695750419387,-0.115234375,-0.9927368,0.06536865,0.09375,2.046875,-0.40625
1695750419418,-0.114746094,-0.9800415,0.0770874,0.71875,2.078125,-0.65625
1695750419494,-0.11254883,-0.9807739,0.062927246,0.046875,1.890625,-0.171875
1695750419521,-0.11010742,-0.986145,0.06048584,0.71875,2.71875,-0.359375
1695750419539,-0.107177734,-0.98272705,0.066345215,0.578125,2.375,-0.25
1695750419584,-0.1081543,-0.987854,0.07196045,0.5,2.015625,-0.28125
1695750419629,-0.10839844,-0.98638916,0.057556152,0.6875,2.453125,-0.484375
1695750419658,-0.104003906,-0.97540283,0.06048584,-0.171875,2.1875,-0.484375
1695750419704,-0.11328125,-0.99420166,0.06781006,-0.1875,2.0,-0.625
1695750419749,-0.11035156,-0.9807739,0.06854248,0.390625,2.15625,-0.71875
1695750419793,-0.1105957,-0.9812622,0.06341553,-0.46875,1.921875,-0.546875
1695750419823,-0.11669922,-0.98687744,0.070251465,-0.078125,1.6875,-0.25
1695750419869,-0.11230469,-0.9788208,0.066833496,-0.21875,2.3125,-0.234375
1695750419898,-0.11621094,-0.9866333,0.06072998,-0.171875,1.859375,-0.40625
1695750419943,-0.11010742,-0.9807739,0.055603027,-0.140625,1.484375,-0.28125
1695750419988,-0.10253906,-0.9824829,0.058044434,0.15625,1.84375,-0.578125
1695750420017,-0.12011719,-0.98321533,0.05633545,0.515625,1.4375,-0.28125
1695750420062,-0.09033203,-0.973938,0.05682373,0.59375,1.546875,-0.765625
1695750420092,-0.111328125,-0.98638916,0.066589355,0.28125,1.921875,-0.78125
1695750420140,-0.107910156,-0.9788208,0.061950684,1.59375,2.140625,-0.625
1695750420183,-0.11010742,-0.9805298,0.05706787,1.296875,2.53125,-0.34375
1695750420212,-0.115722656,-0.9866333,0.058776855,1.09375,2.296875,-0.375
1695750420259,-0.115234375,-0.9763794,0.050964355,0.234375,2.140625,0.015625
1695750420303,-0.09643555,-0.986145,0.054626465,0.390625,1.953125,-0.125
1695750420332,-0.10961914,-0.9807739,0.053649902,-0.1875,1.828125,-0.5625
1695750420412,-0.1027832,-0.9829712,0.04901123,0.375,1.359375,-0.5625
1695750420423,-0.11376953,-0.9873657,0.049743652,0.640625,1.875,-0.375
1695750420455,-0.10449219,-0.9834595,0.051452637,0.703125,1.84375,-0.8125
