# Sensor type: Respeck
# Activity type: Standing
# Activity subtype: Singing
# Subject id: s2063346
# Notes: 3.7
timestamp,accel_x,accel_y,accel_z,gyro_x,gyro_y,gyro_z
1695750524321,-0.07324219,-0.9949341,0.06707764,-0.875,1.828125,-1.25
1695750524372,-0.072021484,-0.98638916,0.062927246,-0.46875,1.671875,-1.109375
1695750524406,-0.064453125,-0.9837036,0.059509277,0.046875,1.640625,-0.640625
1695750524437,-0.08154297,-0.98150635,0.05633545,-1.359375,1.75,-0.59375
1695750524477,-0.08129883,-0.99053955,0.06781006,-0.5,1.734375,-0.78125
1695750524537,-0.072509766,-0.9902954,0.05706787,-0.890625,1.5625,-0.625
1695750524551,-0.0793457,-0.97857666,0.05682373,-0.640625,1.71875,-0.78125
1695750524600,-0.07446289,-0.99224854,0.061462402,-0.484375,1.890625,-0.734375
1695750524672,-0.080322266,-0.9812622,0.06390381,-0.421875,2.25,-1.0625
1695750524675,-0.075683594,-0.98565674,0.06488037,-1.015625,2.375,-0.796875
1695750524717,-0.078125,-0.9871216,0.06414795,0.171875,2.265625,-0.359375
1695750524777,-0.07739258,-0.9866333,0.06365967,0.109375,2.140625,-0.328125
1695750524791,-0.0793457,-0.9849243,0.06512451,0.0625,2.421875,-0.046875
1695750524852,-0.0769043,-0.9885864,0.057556152,-0.0625,2.328125,0.0625
1695750524867,-0.072509766,-0.97540283,0.05657959,-0.21875,1.75,-0.171875
1695750524912,-0.08251953,-0.989563,0.058776855,0.0625,1.53125,0.234375
1695750524960,-0.07348633,-0.9746704,0.06317139,-0.421875,2.171875,-0.265625
1695750524987,-0.0715332,-0.9890747,0.047790527,0.34375,0.9375,-0.140625
1695750525031,-0.071777344,-0.9824829,0.059509277,-0.671875,1.640625,-0.734375
1695750525092,-0.079589844,-0.9819946,0.06488037,-0.265625,1.25,-0.34375
1695750525106,-0.08618164,-0.9951782,0.070495605,-0.4375,0.921875,-0.640625
1695750525152,-0.080078125,-0.9819946,0.07122803,0.15625,1.296875,0.03125
1695750525197,-0.083496094,-0.99176025,0.06854248,-0.25,1.28125,-0.15625
1695750525227,-0.07910156,-1.000061,0.07342529,-0.3125,1.328125,-0.25
1695750525273,-0.0703125,-0.9854126,0.0602417,0.171875,1.390625,-0.578125
1695750525317,-0.0703125,-0.98272705,0.058776855,-0.640625,1.671875,-0.78125
1695750525362,-0.07397461,-0.99102783,0.066833496,-0.265625,1.328125,-0.90625
1695750525391,-0.08569336,-0.9817505,0.06414795,-0.28125,1.234375,-1.0625
1695750525437,-0.0769043,-0.99102783,0.073913574,-0.078125,1.484375,-1.234375
1695750525467,-0.080078125,-0.9824829,0.06903076,0.03125,2.046875,-1.140625
1695750525512,-0.07495117,-0.98150635,0.06390381,-0.4375,2.34375,-0.96875
1695750525557,-0.068847656,-0.9944458,0.06414795,-0.609375,2.578125,-0.9375
1695750525602,-0.07836914,-0.991272,0.066345215,-0.359375,2.3125,-0.9375
1695750525633,-0.06591797,-0.986145,0.07196045,-0.109375,2.140625,-0.9375
1695750525663,-0.0769043,-0.9866333,0.074645996,-0.21875,1.875,-0.671875
1695750525708,-0.08276367,-0.9817505,0.07489014,0.3125,1.59375,-0.5625
1695750525753,-0.072753906,-0.9907837,0.06878662,-0.125,2.0,-0.6875
1695750525829,-0.08178711,-0.97613525,0.07489014,1.21875,1.59375,-0.4375
1695750525833,-0.07080078,-0.9829712,0.05682373,-0.25,1.890625,-0.296875
1695750525873,-0.079833984,-0.9819946,0.06097412,-2.34375,1.9375,-1.109375
1695750525903,-0.08520508,-0.9907837,0.08270264,0.25,1.71875,-0.890625
1695750525948,-0.06591797,-0.98931885,0.06585693,-0.59375,1.671875,-1.4375
1695750525993,-0.07739258,-0.9780884,0.07269287,-0.296875,2.09375,-1.359375
1695750526023,-0.08178711,-0.98883057,0.07611084,0.21875,1.609375,-1.609375
1695750526068,-0.0871582,-0.98809814,0.074157715,0.71875,1.21875,-1.265625
1695750526114,-0.076416016,-0.9763794,0.05999756,-0.234375,0.9375,-1.578125
1695750526159,-0.08984375,-0.9859009,0.0770874,0.046875,0.71875,-1.03125
1695750526188,-0.09326172,-0.99591064,0.07537842,0.765625,0.859375,-0.765625
1695750526266,-0.09033203,-0.9758911,0.06732178,-0.328125,1.0625,-0.859375
1695750526270,-0.092285156,-0.9898071,0.070251465,-0.21875,1.0625,-0.78125
1695750526308,-0.08911133,-0.9859009,0.070495605,-0.203125,1.140625,-0.6875
1695750526353,-0.0859375,-0.99005127,0.06463623,-0.34375,1.234375,-0.890625
1695750526384,-0.09106445,-0.99298096,0.074157715,0.34375,1.9375,-0.75
1695750526428,-0.075683594,-0.9805298,0.07220459,-0.046875,1.828125,-0.921875
1695750526460,-0.09790039,-0.9834595,0.073913574,-0.078125,1.5,0.0
1695750526505,-0.096191406,-0.991272,0.06585693,-0.4375,1.703125,0.234375
1695750526552,-0.087646484,-0.9812622,0.07244873,-0.421875,1.390625,0.765625
1695750526577,-0.08251953,-0.9998169,0.0602417,-1.375,2.3125,0.171875
1695750526624,-0.09057617,-0.9837036,0.089782715,0.296875,1.875,0.75
1695750526669,-0.06323242,-0.972229,0.05316162,-0.875,1.65625,-0.125
1695750526713,-0.08251953,-0.97613525,0.06732178,-2.296875,1.265625,-0.796875
1695750526757,-0.091552734,-0.9976196,0.09881592,1.296875,1.125,-0.84375
1695750526787,-0.076416016,-0.97369385,0.077819824,0.46875,1.265625,-1.109375
1695750526832,-0.0859375,-0.9793091,0.059753418,-0.25,0.78125,-1.03125
1695750526864,-0.08886719,-0.9829712,0.089538574,0.984375,0.71875,-1.4375
1695750526909,-0.092285156,-0.9885864,0.074645996,2.640625,0.9375,-0.4375
1695750526936,-0.07324219,-0.97735596,0.054382324,0.125,1.25,-1.328125
1695750526999,-0.09008789,-0.9873657,0.07366943,1.265625,1.234375,-1.21875
1695750527044,-0.0925293,-0.98394775,0.0692749,1.953125,1.1875,-1.203125
1695750527058,-0.09008789,-0.9859009,0.066345215,0.984375,1.03125,-1.015625
1695750527103,-0.10253906,-0.9924927,0.062683105,-0.078125,1.0625,-0.15625
1695750527148,-0.09448242,-0.9898071,0.06317139,-0.328125,1.75,0.171875
1695750527178,-0.08935547,-0.99542236,0.06536865,-0.71875,1.609375,0.828125
1695750527223,-0.091796875,-0.987854,0.07098389,-0.90625,1.25,1.375
1695750527254,-0.08569336,-0.9898071,0.062683105,-1.78125,0.28125,2.03125
1695750527298,-0.07055664,-0.9793091,0.07684326,-0.984375,0.171875,1.078125
1695750527373,-0.068115234,-0.97784424,0.0836792,-0.578125,-0.375,0.015625
1695750527386,-0.06665039,-0.9812622,0.07220459,0.015625,-0.484375,-1.140625
1695750527418,-0.084472656,-0.9866333,0.07537842,1.359375,0.140625,-2.09375
1695750527463,-0.08251953,-0.98321533,0.055603027,0.953125,1.890625,-3.296875
1695750527494,-0.111328125,-0.98687744,0.07879639,2.6875,1.53125,-1.84375
1695750527538,-0.08496094,-0.9963989,0.047790527,-0.140625,2.359375,-2.15625
1695750527584,-0.09082031,-0.98883057,0.06121826,-1.578125,2.875,-1.65625
1695750527612,-0.10107422,-0.98931885,0.07342529,-0.609375,2.21875,-0.640625
1695750527673,-0.07739258,-0.97906494,0.07220459,-2.34375,1.9375,0.0625
1695750527703,-0.06933594,-0.98883057,0.06781006,-1.921875,1.46875,0.796875
1695750527733,-0.0793457,-0.987854,0.07733154,0.421875,0.796875,0.40625
1695750527778,-0.068847656,-0.9871216,0.07171631,0.90625,0.828125,-0.296875
1695750527808,-0.091308594,-0.9714966,0.06976318,0.40625,0.78125,-0.578125
1695750527853,-0.09350586,-0.9924927,0.07904053,2.078125,1.265625,-0.640625
1695750527913,-0.08520508,-0.98516846,0.06854248,2.265625,1.828125,-1.0
1695750527928,-0.08496094,-0.9846802,0.0692749,2.421875,1.859375,-1.375
1695750527973,-0.09008789,-0.98760986,0.055603027,2.125,1.6875,-1.03125
1695750528018,-0.08642578,-0.986145,0.058532715,1.5,2.125,-0.328125
1695750528047,-0.09472656,-1.0003052,0.055114746,0.390625,2.328125,0.546875
1695750528110,-0.09106445,-0.99102783,0.050720215,-0.09375,2.25,0.828125
1695750528137,-0.07739258,-0.9939575,0.054138184,-0.734375,2.015625,1.140625
1695750528168,-0.072265625,-0.9829712,0.050231934,-1.640625,2.015625,0.875
1695750528213,-0.0625,-0.9883423,0.05218506,-0.84375,1.046875,0.65625
1695750528260,-0.06713867,-0.9805298,0.059265137,0.796875,1.03125,0.53125
1695750528288,-0.080322266,-0.9873657,0.061706543,-0.609375,1.078125,-0.0625
1695750528334,-0.075683594,-0.9793091,0.059265137,0.640625,0.484375,-0.515625
1695750528380,-0.072265625,-0.98150635,0.05706787,1.390625,1.21875,-1.765625
1695750528407,-0.092041016,-0.9824829,0.06463623,3.453125,1.59375,-1.203125
1695750528453,-0.06347656,-0.9793091,0.04119873,2.09375,2.1875,-2.4375
1695750528514,-0.09423828,-0.98321533,0.049987793,1.953125,2.03125,-1.859375
1695750528527,-0.09326172,-0.9924927,0.034851074,2.0625,1.484375,-1.90625
1695750528574,-0.107666016,-0.9951782,0.042419434,0.890625,2.015625,0.828125
1695750528603,-0.10473633,-1.0083618,0.035827637,-3.296875,4.015625,2.40625
1695750528663,-0.064697266,-1.0046997,0.054138184,-1.453125,2.78125,3.046875
1695750528708,-0.048583984,-0.9729614,0.05682373,-2.828125,1.84375,2.453125
1695750528723,-0.046875,-0.9702759,0.06536865,-4.078125,0.296875,0.9375
1695750528768,-0.061035156,-0.9829712,0.062683105,-2.765625,-0.203125,-0.09375
1695750528814,-0.06762695,-0.9793091,0.051452637,0.3125,-0.09375,-1.265625
1695750528842,-0.072753906,-0.9807739,0.06488037,1.609375,0.421875,-2.234375
1695750528888,-0.08984375,-0.9763794,0.061462402,2.046875,1.65625,-2.890625
1695750528933,-0.091796875,-0.98028564,0.051940918,2.6875,2.328125,-2.84375
1695750528962,-0.09375,-0.9981079,0.054626465,3.046875,3.3125,-2.890625
1695750529009,-0.079833984,-0.9924927,0.045837402,1.8125,3.484375,-2.734375
1695750529054,-0.07739258,-0.9883423,0.038269043,0.640625,3.3125,-1.5625
1695750529082,-0.07055664,-0.99005127,0.038513184,0.0625,2.484375,-1.0
1695750529129,-0.0625,-0.98809814,0.046325684,-0.359375,1.078125,-0.328125
1695750529173,-0.07885742,-0.991272,0.054870605,-0.1875,1.171875,0.171875
1695750529202,-0.07788086,-0.9841919,0.04486084,0.234375,1.0,0.671875
1695750529264,-0.0847168,-0.9805298,0.050476074,0.125,1.09375,0.171875
1695750529292,-0.088134766,-0.97662354,0.047546387,1.28125,1.4375,0.0625
1695750529324,-0.092041016,-0.9776001,0.05267334,2.203125,2.265625,-0.578125
1695750529399,-0.08886719,-0.98394775,0.031921387,1.640625,2.5625,-0.4375
1695750529403,-0.06933594,-0.9800415,0.026306152,0.203125,2.875,-1.15625
1695750529443,-0.075927734,-0.9924927,0.04486084,1.671875,2.734375,-0.734375
1695750529488,-0.080566406,-0.9956665,0.039489746,0.9375,2.140625,-0.421875
1695750529518,-0.07519531,-0.9817505,0.032409668,0.015625,2.140625,-0.21875
1695750529562,-0.08642578,-0.99005127,0.03729248,-0.9375,1.4375,-0.5625
1695750529609,-0.096191406,-0.9939575,0.04046631,-1.359375,1.203125,-0.125
1695750529638,-0.07324219,-0.98809814,0.030944824,-1.390625,1.671875,-0.390625
1695750529683,-0.0847168,-0.9885864,0.046325684,-1.90625,2.40625,-0.15625
1695750529728,-0.08300781,-0.9927368,0.041931152,-2.0,1.75,0.171875
1695750529757,-0.07006836,-0.9837036,0.039978027,-1.734375,1.90625,0.140625
1695750529804,-0.07128906,-0.98321533,0.045837402,-1.5625,1.625,-0.03125
1695750529848,-0.061279297,-0.9780884,0.0524292,-1.1875,1.015625,-0.53125
1695750529877,-0.06640625,-0.9771118,0.05340576,0.015625,0.875,-0.53125
1695750529923,-0.06958008,-0.9817505,0.04901123,1.140625,0.34375,-1.265625
1695750529968,-0.0793457,-0.98443604,0.047790527,1.875,1.0,-1.5
1695750529997,-0.09008789,-0.9866333,0.0368042,1.8125,1.140625,-1.734375
1695750530043,-0.076416016,-0.99298096,0.038513184,2.71875,1.296875,-1.875
1695750530071,-0.08227539,-0.9871216,0.028747559,2.03125,1.765625,-1.65625
1695750530118,-0.083984375,-0.99346924,0.03289795,1.734375,1.890625,-1.140625
1695750530163,-0.08154297,-0.99298096,0.02557373,1.21875,2.21875,-0.4375
1695750530192,-0.08227539,-0.9981079,0.042663574,-0.625,1.203125,-0.3125
1695750530238,-0.07885742,-1.0025024,0.048034668,-0.875,1.484375,-0.171875
1695750530299,-0.07324219,-0.9817505,0.031433105,-0.1875,0.921875,0.28125
1695750530313,-0.063964844,-0.97442627,0.027038574,-0.296875,0.4375,-0.734375
1695750530360,-0.076416016,-0.98443604,0.029968262,-0.5,-0.140625,-1.40625
1695750530403,-0.099365234,-0.9841919,0.04168701,0.796875,0.671875,-1.21875
1695750530432,-0.103027344,-0.9824829,0.032409668,0.65625,1.734375,-0.765625
1695750530478,-0.107421875,-0.99298096,0.028503418,0.21875,3.171875,-0.046875
1695750530524,-0.095458984,-0.99713135,0.034606934,0.265625,3.71875,0.21875
1695750530553,-0.07324219,-0.98028564,0.028503418,-0.796875,3.359375,0.21875
1695750530598,-0.064453125,-0.98223877,0.030212402,-1.03125,2.125,-0.125
1695750530674,-0.07543945,-0.9837036,0.034606934,-0.421875,1.265625,0.234375
1695750530678,-0.06347656,-0.9841919,0.042175293,-1.1875,0.921875,0.0625
1695750530718,-0.0703125,-0.97784424,0.031921387,-0.265625,-0.046875,0.171875
1695750530764,-0.09008789,-0.99224854,0.04095459,-0.390625,0.25,0.203125
1695750530792,-0.08935547,-0.9837036,0.039001465,-0.5,1.46875,0.640625
1695750530838,-0.08691406,-0.98028564,0.03314209,-0.1875,2.53125,0.609375
1695750530867,-0.07397461,-0.99591064,0.039978027,-0.640625,2.9375,0.359375
1695750530913,-0.072753906,-0.98931885,0.041931152,-1.21875,2.78125,0.109375
1695750530958,-0.05517578,-0.98101807,0.03338623,-0.859375,2.34375,0.125
1695750531034,-0.0546875,-0.986145,0.042419434,-1.046875,1.625,-0.53125
1695750531038,-0.055908203,-0.98394775,0.0368042,-0.484375,0.65625,-1.21875
1695750531078,-0.075683594,-0.98809814,0.04534912,-0.109375,1.015625,-1.34375
1695750531107,-0.071777344,-0.9780884,0.041931152,0.640625,0.671875,-2.453125
1695750531153,-0.0715332,-0.96539307,0.043395996,1.484375,0.6875,-2.703125
1695750531199,-0.08300781,-0.9763794,0.04876709,2.875,1.0625,-2.234375
1695750531259,-0.087402344,-0.9924927,0.029968262,2.375,1.6875,-1.640625
1695750531273,-0.09033203,-0.991272,0.03265381,1.21875,1.9375,-1.421875
1695750531319,-0.09277344,-0.99713135,0.038269043,1.28125,2.515625,-0.359375
1695750531347,-0.064697266,-0.98565674,0.0289917,0.28125,1.828125,-0.03125
1695750531394,-0.06738281,-0.9812622,0.026794434,-0.546875,1.3125,0.0
1695750531469,-0.07324219,-0.99176025,0.031677246,-1.296875,0.484375,-0.140625
1695750531474,-0.079833984,-0.9834595,0.024841309,-2.78125,0.71875,-1.71875
1695750531513,-0.091796875,-0.99102783,0.04437256,-1.984375,1.046875,-2.390625
1695750531544,-0.10058594,-0.99298096,0.055603027,-1.9375,3.359375,-1.3125
1695750531588,-0.09033203,-0.9961548,0.051696777,-2.796875,5.859375,-0.6875
1695750531633,-0.087890625,-0.98638916,0.038024902,-2.59375,5.9375,0.046875
1695750531678,-0.078125,-0.9776001,0.03289795,-1.375,5.3125,0.296875
1695750531709,-0.08569336,-0.9890747,0.06121826,-0.828125,4.296875,0.828125
1695750531753,-0.07470703,-0.9805298,0.050231934,-0.828125,3.046875,1.171875
1695750531782,-0.079833984,-0.9776001,0.04168701,-1.5625,1.875,0.96875
1695750531828,-0.071777344,-0.98809814,0.055847168,-0.875,1.71875,0.734375
1695750531873,-0.08276367,-0.97979736,0.055603027,-1.109375,1.203125,1.1875
1695750531903,-0.06616211,-0.9741821,0.05731201,-0.28125,1.203125,0.625
1695750531948,-0.078125,-0.99468994,0.054870605,0.203125,2.203125,0.5625
1695750531993,-0.07104492,-0.9817505,0.058776855,0.5625,2.234375,-0.171875
1695750532038,-0.0703125,-0.9819946,0.059265137,0.59375,1.875,-0.375
1695750532067,-0.059326172,-0.972229,0.042907715,0.40625,2.328125,-1.03125
1695750532113,-0.068847656,-0.99713135,0.059509277,0.53125,1.84375,-1.25
1695750532158,-0.05053711,-0.972229,0.04437256,-1.109375,1.375,-2.34375
1695750532187,-0.072753906,-0.97052,0.049743652,-0.796875,0.53125,-2.421875
1695750532233,-0.07397461,-0.9837036,0.05609131,-0.03125,0.875,-2.734375
1695750532262,-0.0769043,-0.9924927,0.05291748,1.03125,0.890625,-2.203125
1695750532308,-0.09399414,-0.991272,0.06976318,1.5,1.734375,-1.40625
1695750532338,-0.1003418,-0.9981079,0.05218506,1.234375,1.84375,0.3125
1695750532401,-0.091796875,-0.98687744,0.05340576,-0.21875,1.8125,0.609375
1695750532428,-0.0715332,-0.99053955,0.06439209,-0.828125,1.71875,2.03125
1695750532458,-0.06567383,-0.9829712,0.051452637,-0.671875,1.859375,1.453125
1695750532518,-0.057373047,-0.9898071,0.05218506,-0.625,1.84375,0.25
1695750532564,-0.057617188,-0.99346924,0.06732178,0.40625,1.390625,-0.296875
1695750532577,-0.07788086,-0.9800415,0.062683105,0.765625,0.15625,-0.328125
1695750532624,-0.063964844,-0.97979736,0.051208496,-0.09375,-0.234375,-0.65625
1695750532668,-0.07397461,-0.9944458,0.04925537,-0.65625,-0.765625,-1.328125
1695750532698,-0.06738281,-0.9924927,0.055114746,-0.453125,0.03125,-1.359375
1695750532743,-0.08251953,-0.98687744,0.05731201,0.046875,0.890625,-0.5625
1695750532789,-0.09741211,-0.99786377,0.061462402,-0.015625,2.28125,0.859375
1695750532817,-0.07348633,-1.008606,0.054870605,-1.953125,3.140625,1.65625
1695750532863,-0.075683594,-0.99542236,0.07318115,-0.6875,3.109375,4.1875
1695750532907,-0.041748047,-0.9885864,0.04437256,-2.125,3.796875,3.71875
1695750532937,-0.03491211,-0.9776001,0.051940918,-2.703125,2.875,2.0
1695750532997,-0.048339844,-0.98760986,0.07952881,0.828125,3.078125,1.8125
1695750533013,-0.03540039,-0.96954346,0.06512451,0.921875,2.5,0.203125
1695750533058,-0.04663086,-0.97540283,0.050720215,1.265625,1.890625,-0.984375
1695750533102,-0.0637207,-0.98638916,0.06439209,2.453125,1.765625,-2.15625
1695750533132,-0.0690918,-0.98883057,0.055114746,2.359375,1.703125,-1.828125
1695750533178,-0.052246094,-0.98565674,0.038269043,-0.25,1.890625,-1.9375
1695750533238,-0.061767578,-1.000061,0.04925537,-0.609375,2.0,-1.671875
1695750533252,-0.0546875,-0.98809814,0.04901123,-0.421875,1.75,-1.125
1695750533298,-0.03930664,-0.98687744,0.055114746,-0.828125,1.484375,-1.09375
1695750533343,-0.041015625,-0.9873657,0.058288574,-1.0625,0.265625,-1.25
1695750533373,-0.053466797,-0.98638916,0.051452637,-1.359375,-0.390625,-1.5
1695750533418,-0.049316406,-0.9854126,0.057556152,-1.0,-0.3125,-1.390625
1695750533462,-0.064941406,-0.9771118,0.058776855,-0.40625,-0.046875,-1.828125
1695750533494,-0.079589844,-0.98687744,0.070007324,0.03125,0.125,-1.421875
1695750533540,-0.06665039,-0.9898071,0.06488037,0.921875,0.234375,-1.34375
1695750533587,-0.060058594,-1.0012817,0.051940918,0.71875,1.125,-2.0625
1695750533611,-0.06225586,-0.97247314,0.061462402,2.171875,0.546875,-2.4375
1695750533658,-0.067871094,-1.0010376,0.050476074,1.71875,0.953125,-2.359375
1695750533706,-0.06640625,-0.9883423,0.04144287,0.765625,0.671875,-2.796875
1695750533747,-0.083740234,-0.9883423,0.06585693,2.640625,0.703125,-2.203125
1695750533777,-0.09277344,-1.0049438,0.050231934,1.609375,1.0625,-1.21875
1695750533807,-0.087646484,-0.9885864,0.0368042,1.0,2.34375,-0.75
1695750533855,-0.08544922,-0.9871216,0.04071045,0.34375,1.875,-0.25
1695750533899,-0.08227539,-0.991272,0.05218506,0.515625,2.140625,0.296875
1695750533943,-0.07104492,-0.9898071,0.038513184,-1.25,2.34375,0.125
1695750533973,-0.08129883,-0.9849243,0.04949951,-0.921875,2.125,0.234375
1695750534020,-0.0703125,-0.98809814,0.045837402,-0.265625,1.75,0.203125
1695750534047,-0.07519531,-0.9776001,0.046569824,-1.078125,1.53125,0.4375
1695750534093,-0.0715332,-0.9944458,0.04437256,-1.359375,0.9375,0.4375
1695750534138,-0.059326172,-0.9805298,0.039489746,-1.015625,0.3125,-0.0625
1695750534184,-0.08935547,-0.9795532,0.05291748,-2.171875,0.5625,-0.25
1695750534212,-0.06542969,-0.9998169,0.051452637,-0.96875,0.203125,-0.90625
1695750534258,-0.06518555,-0.9780884,0.048034668,-0.734375,0.09375,-1.546875
1695750534305,-0.071777344,-0.98516846,0.054626465,-0.03125,0.296875,-1.375
1695750534333,-0.08276367,-0.9829712,0.053894043,-0.140625,0.015625,-1.5
1695750534379,-0.07714844,-0.98565674,0.053649902,0.234375,-0.25,-1.6875
1695750534407,-0.079589844,-0.99713135,0.05218506,0.0625,0.5625,-1.796875
1695750534455,-0.09448242,-0.9854126,0.06561279,1.4375,0.265625,-1.015625
1695750534513,-0.075683594,-0.9883423,0.036071777,0.078125,1.265625,-1.15625
1695750534526,-0.068115234,-0.98516846,0.04437256,-1.75,1.234375,-1.703125
1695750534623,-0.09301758,-0.9939575,0.07196045,0.15625,1.203125,-0.578125
1695750534628,-0.06762695,-0.98394775,0.049987793,-1.453125,1.109375,-1.171875
1695750534647,-0.08154297,-0.9854126,0.05706787,-2.140625,0.890625,-0.296875
1695750534693,-0.09057617,-0.99420166,0.0692749,-1.171875,0.984375,-0.28125
1695750534723,-0.08105469,-0.97857666,0.06829834,-0.890625,1.0625,-0.421875
1695750534769,-0.061523438,-0.98687744,0.061950684,-0.78125,0.828125,-1.25
1695750534813,-0.08959961,-0.9871216,0.066101074,-0.125,1.046875,-1.625
1695750534842,-0.072509766,-0.9859009,0.05633545,0.0,1.28125,-1.5625
1695750534889,-0.061523438,-0.97979736,0.05291748,0.796875,1.375,-1.703125
1695750534935,-0.080322266,-0.9871216,0.07122803,0.765625,1.296875,-1.15625
1695750534963,-0.091308594,-0.987854,0.066345215,2.359375,1.4375,-0.578125
1695750535008,-0.08618164,-0.9907837,0.06341553,1.640625,2.109375,-0.203125
1695750535053,-0.07836914,-0.99176025,0.06488037,2.390625,2.0625,-0.046875
1695750535082,-0.08129883,-0.99005127,0.058532715,1.78125,2.09375,0.765625
1695750535128,-0.0715332,-0.9834595,0.05340576,1.40625,1.78125,0.515625
1695750535173,-0.0859375,-0.98931885,0.051696777,0.859375,2.078125,0.328125
1695750535203,-0.075927734,-0.9727173,0.04852295,1.390625,1.828125,-0.625
1695750535248,-0.07739258,-0.9800415,0.047546387,1.328125,1.921875,-1.171875
1695750535278,-0.084472656,-0.97784424,0.051696777,0.8125,2.359375,-1.203125
1695750535323,-0.09741211,-0.99224854,0.04071045,0.515625,3.390625,-1.09375
1695750535368,-0.087402344,-0.99542236,0.042419434,0.578125,4.234375,-0.640625
1695750535397,-0.072753906,-0.99005127,0.059265137,0.921875,4.875,-0.46875
1695750535443,-0.08203125,-0.9788208,0.034362793,0.171875,3.28125,0.53125
1695750535489,-0.0769043,-0.9849243,0.04168701,-1.265625,2.6875,-0.3125
1695750535518,-0.088134766,-0.98760986,0.05340576,0.203125,3.359375,0.671875
1695750535563,-0.079589844,-0.9727173,0.04559326,0.5625,2.671875,0.390625
1695750535608,-0.07739258,-0.98321533,0.02947998,0.5,1.84375,0.40625
1695750535638,-0.08203125,-0.97442627,0.031677246,-0.078125,1.25,-0.625
1695750535699,-0.083740234,-0.98321533,0.046325684,1.71875,0.84375,-0.5
1695750535743,-0.087646484,-0.98443604,0.043395996,-0.03125,0.265625,-0.3125
1695750535790,-0.09716797,-0.9898071,0.044128418,-0.3125,1.0625,-0.171875
1695750535802,-0.07470703,-0.9866333,0.03704834,-1.65625,1.46875,-0.578125
1695750535848,-0.078125,-0.9915161,0.04901123,-1.453125,2.359375,-0.71875
1695750535893,-0.061279297,-0.987854,0.038024902,-1.25,2.71875,-1.4375
1695750535923,-0.06665039,-0.97784424,0.038757324,-1.359375,2.296875,-1.484375
1695750535983,-0.08154297,-0.98028564,0.046325684,-0.34375,1.75,-1.375
1695750535997,-0.09057617,-0.9871216,0.050964355,-0.109375,0.765625,-1.34375
1695750536043,-0.08154297,-0.98150635,0.039245605,-0.390625,1.359375,-1.59375
1695750536074,-0.088378906,-0.98883057,0.04486084,0.25,2.078125,-1.671875
1695750536133,-0.088134766,-0.9841919,0.04437256,0.890625,2.484375,-1.46875
1695750536163,-0.09326172,-0.99224854,0.04437256,0.15625,2.921875,-1.375
1695750536238,-0.0847168,-0.9944458,0.050720215,0.03125,2.484375,-1.296875
1695750536253,-0.07885742,-0.99176025,0.043640137,-0.125,2.140625,-0.875
1695750536284,-0.091552734,-0.9849243,0.050720215,-0.1875,1.71875,-0.484375
1695750536313,-0.0859375,-0.98760986,0.038513184,0.0625,1.46875,-0.5
1695750536358,-0.091552734,-0.98150635,0.04559326,-0.328125,1.234375,-0.4375
1695750536403,-0.092285156,-0.98321533,0.042419434,-0.0625,1.46875,-0.4375
1695750536433,-0.08251953,-0.9885864,0.04876709,0.640625,1.40625,-0.765625
1695750536481,-0.08496094,-0.9866333,0.039245605,0.625,1.28125,-0.640625
1695750536523,-0.09277344,-0.9927368,0.051696777,0.484375,1.34375,-0.765625
1695750536553,-0.08300781,-0.9932251,0.032409668,-1.15625,1.53125,-1.09375
1695750536601,-0.095947266,-0.9871216,0.043395996,0.46875,0.65625,-0.421875
1695750536673,-0.08178711,-0.99053955,0.035827637,-0.546875,1.203125,-0.984375
1695750536678,-0.09326172,-0.97540283,0.043884277,-1.6875,1.4375,-0.953125
1695750536718,-0.09008789,-0.99591064,0.047790527,0.34375,1.328125,-1.0
1695750536748,-0.08959961,-0.97491455,0.039001465,-0.578125,1.03125,-0.96875
1695750536793,-0.09350586,-0.98565674,0.039489746,-0.171875,1.46875,-1.171875
1695750536838,-0.091796875,-0.9795532,0.04925537,0.90625,1.078125,-1.421875
1695750536868,-0.095458984,-0.98028564,0.04901123,1.265625,1.96875,-1.140625
1695750536914,-0.083496094,-0.9817505,0.03729248,1.75,1.59375,-1.75
1695750536958,-0.10546875,-0.99053955,0.039978027,1.4375,1.4375,-1.859375
1695750536987,-0.095703125,-0.9951782,0.03387451,1.609375,1.28125,-1.3125
1695750537032,-0.1003418,-0.9854126,0.029724121,-0.03125,1.25,-0.8125
1695750537078,-0.09375,-0.9927368,0.039489746,-1.171875,1.265625,-0.46875
1695750537107,-0.088378906,-0.98760986,0.039733887,-1.0,1.0625,0.25
1695750537153,-0.09057617,-0.98101807,0.04119873,-0.625,0.4375,0.671875
1695750537229,-0.09375,-0.9898071,0.049743652,-0.25,0.671875,0.578125
1695750537233,-0.088134766,-0.98687744,0.0446167,-0.0625,0.875,0.34375
1695750537272,-0.088134766,-0.97442627,0.031921387,0.5,0.8125,-0.15625
1695750537319,-0.100097656,-0.986145,0.045837402,1.0625,1.46875,-0.671875
1695750537347,-0.092041016,-0.98321533,0.043640137,1.0,2.265625,-0.84375
1695750537393,-0.103759766,-0.9854126,0.03704834,1.046875,2.171875,-0.890625
1695750537437,-0.09277344,-0.99542236,0.036315918,0.625,2.1875,-0.765625
1695750537467,-0.09082031,-0.991272,0.042907715,0.046875,2.1875,0.140625
1695750537513,-0.087646484,-0.9859009,0.039489746,-0.1875,1.890625,0.359375
1695750537543,-0.088134766,-0.98223877,0.034606934,0.078125,1.578125,0.40625
1695750537588,-0.07788086,-0.9976196,0.030944824,-1.234375,1.765625,-0.09375
1695750537632,-0.09887695,-0.991272,0.051208496,1.15625,0.953125,0.609375
1695750537662,-0.080566406,-0.97906494,0.028259277,-1.3125,1.484375,-0.359375
1695750537708,-0.091308594,-0.9834595,0.03265381,-1.546875,1.5625,-0.6875
1695750537752,-0.08984375,-0.987854,0.050720215,0.96875,1.59375,-0.75
1695750537782,-0.07861328,-0.98150635,0.035095215,-0.046875,1.8125,-0.75
1695750537828,-0.088134766,-0.99786377,0.030212402,2.28125,1.484375,-0.15625
1695750537874,-0.083984375,-0.9866333,0.031921387,1.34375,1.125,-0.46875
1695750537904,-0.08520508,-0.98443604,0.040222168,0.609375,1.140625,0.09375
1695750537948,-0.08300781,-0.98028564,0.02947998,0.15625,1.125,-0.53125
1695750537994,-0.08862305,-0.97979736,0.032165527,-0.03125,1.203125,-0.5
1695750538022,-0.09375,-0.99957275,0.046569824,0.9375,1.28125,-0.203125
1695750538070,-0.08081055,-0.97076416,0.027526855,0.921875,1.5625,-0.5
1695750538130,-0.079833984,-0.9873657,0.031188965,0.328125,1.46875,-0.625
1695750538143,-0.09863281,-1.0010376,0.0368042,0.3125,1.796875,-0.03125
1695750538203,-0.076171875,-0.9741821,0.02508545,0.609375,1.703125,-0.03125
1695750538233,-0.079833984,-0.9932251,0.029724121,-0.15625,1.53125,0.375
1695750538264,-0.080078125,-0.9944458,0.031433105,0.359375,1.265625,0.65625
1695750538308,-0.07324219,-0.9783325,0.02923584,-0.375,1.21875,0.671875
1695750538354,-0.07739258,-0.9837036,0.028747559,0.5,1.0625,0.625
1695750538383,-0.07836914,-0.98272705,0.032165527,1.140625,1.6875,0.390625
1695750538428,-0.0703125,-0.9800415,0.019958496,1.5625,1.6875,0.046875
1695750538458,-0.07763672,-0.9829712,0.022644043,2.296875,2.5,-0.546875
1695750538520,-0.076660156,-0.987854,0.01776123,2.984375,2.609375,-1.046875
1695750538548,-0.08203125,-0.98687744,0.016540527,1.890625,2.59375,-1.203125
1695750538577,-0.07470703,-0.99102783,0.0033569336,0.40625,2.484375,-1.046875
1695750538640,-0.06518555,-0.98101807,0.019470215,-0.140625,2.1875,-1.171875
1695750538668,-0.083496094,-0.99468994,0.016296387,-1.078125,1.171875,-0.234375
1695750538698,-0.060302734,-0.9817505,0.016052246,-2.59375,0.78125,-0.546875
1695750538774,-0.08081055,-0.98516846,0.031433105,-1.8125,0.65625,0.03125
1695750538803,-0.08496094,-0.98223877,0.030944824,-0.484375,-0.140625,-0.671875
1695750538822,-0.08886719,-0.9788208,0.018005371,-0.359375,1.03125,-0.4375
1695750538863,-0.08642578,-0.98809814,0.023132324,-0.109375,1.421875,-0.859375
1695750538909,-0.087646484,-0.9846802,0.028747559,0.375,2.0625,-0.984375
1695750538954,-0.076171875,-0.9829712,0.027038574,0.359375,2.1875,-0.75
1695750538982,-0.076416016,-0.97906494,0.015563965,-0.328125,1.75,-0.8125
1695750539012,-0.07714844,-0.9849243,0.01727295,-0.34375,1.984375,-0.5
1695750539074,-0.0690918,-0.986145,0.026062012,-1.03125,1.046875,-0.0625
1695750539103,-0.07910156,-0.9898071,0.022888184,-0.4375,0.765625,-0.03125
1695750539133,-0.076660156,-0.98687744,0.018737793,-1.03125,1.046875,-0.234375
1695750539179,-0.07324219,-0.9829712,0.016540527,-1.15625,1.578125,-0.546875
1695750539223,-0.08251953,-0.99957275,0.032409668,-0.015625,1.6875,-0.421875
1695750539254,-0.0703125,-0.9771118,0.028015137,0.53125,1.640625,-0.734375
1695750539298,-0.0769043,-0.98394775,0.030700684,0.546875,1.71875,-1.15625
1695750539343,-0.07763672,-0.9854126,0.024597168,1.1875,1.8125,-1.265625
1695750539372,-0.07519531,-0.9837036,0.016296387,1.1875,1.828125,-1.0
1695750539419,-0.071777344,-0.9819946,0.021911621,0.5,1.578125,-0.9375
1695750539464,-0.0871582,-0.9920044,0.018493652,0.90625,1.265625,-0.78125
1695750539494,-0.075927734,-0.9898071,0.023376465,0.515625,1.5,-1.296875
1695750539538,-0.08496094,-0.9866333,0.01776123,0.28125,1.609375,-1.078125
1695750539583,-0.08154297,-0.9807739,0.018981934,-0.375,1.71875,-0.65625
1695750539628,-0.0793457,-0.97857666,0.026306152,-0.015625,2.21875,-0.8125
1695750539689,-0.09008789,-0.9939575,0.018493652,-0.515625,1.84375,-0.21875
1695750539703,-0.07373047,-0.98272705,0.019714355,-1.390625,1.90625,-1.3125
1695750539748,-0.09350586,-0.98809814,0.02947998,-1.28125,2.125,-0.921875
1695750539823,-0.0859375,-0.9890747,0.026306152,-0.875,1.5625,-1.3125
1695750539828,-0.07519531,-0.98516846,0.019470215,-1.65625,2.015625,-1.3125
1695750539852,-0.09423828,-0.9968872,0.030212402,-0.484375,1.625,-1.21875
1695750539898,-0.079833984,-0.9817505,0.028503418,-0.859375,1.46875,-1.453125
1695750539927,-0.0793457,-0.98638916,0.028747559,-0.8125,1.796875,-1.21875
1695750539974,-0.095703125,-0.98101807,0.0289917,-0.859375,1.421875,-1.4375
1695750540018,-0.08935547,-0.99176025,0.042419434,-1.0,1.15625,-1.984375
1695750540049,-0.08886719,-0.9883423,0.027526855,-1.25,1.734375,-2.046875
1695750540093,-0.09741211,-0.9859009,0.038757324,-1.046875,1.578125,-2.328125
1695750540138,-0.103515625,-0.98687744,0.04095459,-1.296875,1.5625,-2.0625
1695750540167,-0.100097656,-0.98272705,0.039001465,-1.71875,1.84375,-1.5625
1695750540212,-0.09472656,-0.9939575,0.039489746,-1.6875,1.890625,-1.140625
1695750540258,-0.08886719,-0.9829712,0.034851074,-1.671875,2.0,-1.40625
1695750540288,-0.095214844,-0.98760986,0.030456543,-1.09375,1.640625,-0.96875
1695750540335,-0.092285156,-0.98931885,0.03704834,-0.6875,1.125,-0.6875
1695750540378,-0.09472656,-0.98809814,0.0368042,-1.640625,1.5625,-0.796875
1695750540407,-0.10424805,-0.98516846,0.047058105,-1.03125,1.53125,-0.671875
1695750540453,-0.10668945,-0.9817505,0.04046631,0.140625,2.296875,-0.296875
1695750540483,-0.095947266,-0.9885864,0.043640137,0.609375,3.5,0.46875
1695750540531,-0.09887695,-0.9741821,0.044128418,-0.6875,3.375,0.09375
1695750540588,-0.095703125,-0.9951782,0.05267334,0.375,2.953125,0.328125
1695750540602,-0.09350586,-0.9788208,0.054138184,1.875,3.046875,0.625
1695750540694,-0.08959961,-0.9807739,0.039001465,0.3125,2.640625,0.484375
1695750540701,-0.079589844,-0.9854126,0.04827881,-0.8125,1.3125,-1.0
1695750540723,-0.107666016,-0.99298096,0.05999756,0.703125,2.25,-0.8125
1695750540768,-0.095458984,-0.9924927,0.050476074,0.171875,2.09375,-0.921875
1695750540813,-0.09765625,-0.9817505,0.051208496,-0.671875,2.28125,-1.296875
1695750540843,-0.114746094,-0.9927368,0.059020996,-0.828125,2.21875,-1.03125
1695750540919,-0.10620117,-0.9807739,0.053894043,-1.0,3.84375,-1.28125
1695750540931,-0.099121094,-0.9795532,0.04949951,0.4375,3.59375,-1.09375
1695750540963,-0.11352539,-0.97857666,0.06488037,-1.03125,3.53125,-0.90625
1695750541009,-0.091308594,-0.9968872,0.058288574,-0.375,3.09375,-1.03125
1695750541053,-0.092041016,-0.98565674,0.05609131,-0.6875,2.09375,-1.375
1695750541082,-0.10595703,-0.98516846,0.050720215,-0.453125,1.375,-1.359375
1695750541128,-0.09814453,-0.98150635,0.06488037,-0.921875,1.375,-1.203125
1695750541173,-0.10546875,-0.98394775,0.05706787,-1.546875,1.359375,-1.015625
1695750541203,-0.11035156,-0.98028564,0.061462402,-1.546875,1.359375,-1.21875
1695750541249,-0.10571289,-0.9829712,0.06707764,-1.203125,1.609375,-1.890625
1695750541278,-0.09667969,-0.98223877,0.062194824,-1.171875,1.609375,-1.96875
1695750541322,-0.107910156,-0.98101807,0.066589355,-1.046875,1.75,-2.140625
1695750541369,-0.107666016,-0.9854126,0.058532715,-0.71875,1.703125,-1.84375
1695750541397,-0.103027344,-0.98101807,0.058776855,-0.28125,1.53125,-1.609375
1695750541458,-0.10864258,-0.9902954,0.054870605,-0.9375,1.015625,-1.0625
1695750541487,-0.111572266,-0.98223877,0.057556152,-0.9375,1.0625,-0.15625
1695750541518,-0.10131836,-0.98809814,0.061706543,-0.890625,1.390625,-0.015625
1695750541563,-0.12548828,-0.98931885,0.066589355,0.3125,1.21875,1.328125
1695750541609,-0.092041016,-0.9751587,0.055114746,-0.78125,1.96875,0.828125
1695750541638,-0.11987305,-0.9920044,0.0692749,-1.8125,2.3125,1.53125
1695750541684,-0.103515625,-0.9949341,0.07904053,-1.359375,2.125,1.75
1695750541729,-0.07910156,-0.9783325,0.06439209,-1.703125,2.390625,2.234375
1695750541757,-0.09472656,-0.98760986,0.08001709,-0.84375,2.40625,2.03125
1695750541803,-0.08642578,-0.9763794,0.089782715,0.203125,2.46875,1.90625
1695750541894,-0.09667969,-0.98101807,0.07635498,1.09375,2.25,1.765625
1695750541899,-0.080566406,-0.97369385,0.06439209,1.21875,1.5,0.65625
1695750541922,-0.104003906,-0.9793091,0.07244873,1.546875,1.859375,0.203125
1695750541955,-0.09375,-0.98687744,0.05682373,2.421875,3.046875,-0.09375
1695750541998,-0.096191406,-0.9819946,0.06121826,1.59375,3.15625,-0.34375
1695750542043,-0.09326172,-0.9873657,0.070739746,1.03125,3.265625,-0.578125
1695750542072,-0.08178711,-0.98272705,0.062683105,-0.34375,2.15625,-0.390625
1695750542121,-0.06542969,-0.9817505,0.058288574,-1.03125,2.046875,-0.1875
1695750542194,-0.0793457,-0.9866333,0.06976318,-0.734375,1.078125,-0.171875
1695750542199,-0.071777344,-0.99664307,0.073913574,-0.96875,1.21875,-0.28125
1695750542240,-0.09033203,-0.99176025,0.074401855,-1.125,1.765625,0.296875
1695750542283,-0.08935547,-0.98101807,0.07147217,-1.828125,2.0,0.828125
1695750542312,-0.06958008,-0.9849243,0.077819824,-2.3125,2.65625,1.1875
1695750542373,-0.076660156,-0.98443604,0.081970215,-1.234375,1.859375,0.609375
1695750542403,-0.056396484,-0.96466064,0.09197998,0.1875,2.109375,0.078125
1695750542434,-0.07104492,-0.97076416,0.08148193,1.921875,1.375,-0.25
1695750542478,-0.063964844,-0.9849243,0.054382324,2.375,0.828125,-1.09375
1695750542523,-0.07836914,-0.98223877,0.070739746,1.625,1.015625,-2.546875
1695750542570,-0.096191406,-0.9944458,0.0758667,2.765625,1.96875,-2.171875
1695750542598,-0.084228516,-0.989563,0.061950684,1.8125,2.28125,-1.984375
1695750542658,-0.08520508,-0.98883057,0.050964355,1.34375,2.484375,-1.234375
1695750542672,-0.0769043,-0.9990845,0.06781006,0.984375,1.453125,-0.546875
1695750542718,-0.07348633,-0.98687744,0.06536865,0.125,1.25,0.109375
1695750542749,-0.068359375,-0.97979736,0.06097412,-0.03125,0.5625,0.203125
1695750542808,-0.07910156,-0.9915161,0.070251465,0.484375,0.4375,0.421875
1695750542838,-0.09082031,-0.98883057,0.0692749,0.71875,0.421875,0.09375
1695750542868,-0.07543945,-0.9859009,0.06414795,1.375,1.21875,-0.5
1695750542944,-0.095458984,-0.98516846,0.05609131,1.359375,1.296875,-1.1875
1695750542958,-0.08862305,-0.9866333,0.054382324,0.765625,1.984375,-1.21875
1695750542991,-0.0715332,-0.9837036,0.04852295,1.296875,2.421875,-1.5625
1695750543033,-0.078125,-0.9866333,0.047546387,0.671875,2.203125,-1.4375
1695750543078,-0.07788086,-0.9793091,0.05340576,0.640625,1.671875,-1.75
1695750543140,-0.084228516,-0.986145,0.05291748,0.375,1.078125,-1.453125
1695750543183,-0.08227539,-0.97906494,0.04827881,0.40625,0.6875,-1.96875
1695750543200,-0.0769043,-0.9788208,0.04095459,0.4375,-0.015625,-2.09375
1695750543227,-0.08154297,-0.97491455,0.041931152,1.46875,-0.703125,-2.515625
1695750543273,-0.09277344,-0.99102783,0.0368042,0.1875,-0.578125,-3.5625
1695750543319,-0.11303711,-0.9859009,0.051208496,1.515625,-0.234375,-2.84375
1695750543348,-0.11254883,-0.99591064,0.038513184,0.9375,0.75,-1.890625
1695750543393,-0.08886719,-1.0005493,0.022155762,-2.65625,0.859375,-2.796875
1695750543422,-0.095947266,-0.99957275,0.051208496,-2.9375,1.6875,-1.65625
1695750543468,-0.095458984,-0.9873657,0.046569824,-3.28125,2.125,-1.046875
1695750543514,-0.09106445,-0.97857666,0.04437256,-3.359375,1.6875,0.015625
1695750543558,-0.10668945,-0.9859009,0.06829834,-2.15625,1.15625,0.75
1695750543587,-0.09423828,-0.9783325,0.061950684,-0.609375,0.765625,1.78125
1695750543634,-0.103027344,-0.9837036,0.06536865,-2.0,1.265625,1.015625
1695750543662,-0.10595703,-0.991272,0.07244873,-1.375,3.140625,1.203125
1695750543708,-0.09448242,-0.98150635,0.054382324,-0.03125,2.859375,2.171875
1695750543758,-0.08666992,-0.9824829,0.053894043,0.765625,1.5,2.0
1695750543787,-0.08642578,-0.9807739,0.059753418,1.296875,1.171875,1.890625
1695750543829,-0.08154297,-0.9805298,0.061950684,1.53125,1.984375,1.203125
1695750543872,-0.076660156,-0.97540283,0.05657959,0.6875,0.5625,0.53125
1695750543902,-0.09472656,-0.9915161,0.06976318,0.796875,0.5625,0.890625
1695750543948,-0.08203125,-0.98223877,0.06341553,-0.328125,0.90625,0.53125
1695750543995,-0.075927734,-0.987854,0.070251465,-1.140625,1.015625,0.140625
1695750544022,-0.0925293,-0.9956665,0.06854248,-0.3125,0.984375,0.1875
1695750544068,-0.072021484,-0.9746704,0.0692749,-0.890625,1.1875,-1.015625
1695750544144,-0.07373047,-0.9800415,0.06756592,-0.109375,1.25,-1.140625
1695750544148,-0.08886719,-0.99224854,0.070007324,-0.640625,0.9375,-1.0625
1695750544203,-0.075927734,-0.98638916,0.06854248,-1.078125,1.484375,-1.578125
1695750544219,-0.078125,-0.98272705,0.06829834,-0.734375,1.1875,-1.484375
1695750544263,-0.08642578,-0.9795532,0.08026123,0.375,0.828125,-1.578125
1695750544308,-0.07495117,-0.98443604,0.06488037,-0.984375,1.265625,-0.9375
1695750544353,-0.0871582,-0.9976196,0.07342529,-0.5,1.0,-1.234375
1695750544399,-0.08276367,-0.9834595,0.07635498,0.703125,0.984375,-0.921875
1695750544427,-0.05859375,-0.9776001,0.066101074,0.5,0.609375,-1.703125
1695750544458,-0.08691406,-0.9907837,0.06903076,0.9375,0.453125,-0.65625
1695750544503,-0.0871582,-0.9885864,0.06781006,1.296875,0.609375,-1.09375
1695750544548,-0.071777344,-0.9834595,0.05633545,1.546875,0.78125,-0.921875
1695750544578,-0.083496094,-0.97491455,0.057556152,2.46875,1.0,-0.765625
1695750544625,-0.08618164,-0.98809814,0.059509277,3.34375,1.15625,-0.390625
1695750544667,-0.08959961,-0.98272705,0.047546387,3.078125,1.21875,-0.40625
1695750544697,-0.1003418,-0.9902954,0.046081543,2.15625,1.890625,-0.625
1695750544758,-0.08911133,-0.9976196,0.04095459,2.078125,1.71875,-0.296875
1695750544787,-0.084472656,-0.99713135,0.035827637,0.0625,1.984375,-0.578125
1695750544819,-0.088378906,-0.99884033,0.050231934,-0.4375,1.796875,-0.484375
1695750544863,-0.076416016,-0.99884033,0.034362793,-2.1875,1.875,-0.609375
1695750544910,-0.07763672,-0.9771118,0.059753418,-0.328125,1.171875,0.03125
1695750544938,-0.087646484,-0.9866333,0.038269043,-1.78125,0.9375,-0.203125
1695750544982,-0.08642578,-0.97247314,0.051452637,-1.75,0.796875,-0.65625
1695750545028,-0.09667969,-0.9932251,0.0602417,1.25,1.46875,0.375
1695750545057,-0.083496094,-0.9824829,0.042175293,1.765625,1.4375,-0.28125
1695750545102,-0.0847168,-0.9846802,0.039245605,1.3125,2.0,-0.0625
1695750545148,-0.08544922,-0.9951782,0.042175293,2.34375,2.25,0.265625
1695750545177,-0.0871582,-0.9907837,0.043151855,1.765625,3.515625,0.71875
1695750545224,-0.07348633,-0.9817505,0.03387451,0.96875,2.65625,0.4375
1695750545254,-0.08325195,-0.9866333,0.047790527,0.46875,2.0625,0.671875
1695750545298,-0.08984375,-0.9849243,0.048034668,0.46875,2.140625,0.40625
1695750545358,-0.0637207,-0.975647,0.03363037,-0.34375,2.125,-0.171875
1695750545373,-0.076171875,-0.9898071,0.03656006,-0.09375,1.84375,-0.140625
1695750545421,-0.07397461,-0.9873657,0.030212402,1.1875,1.671875,-0.4375
1695750545464,-0.07885742,-0.98565674,0.03363037,0.25,1.453125,-0.328125
1695750545492,-0.08081055,-0.9883423,0.024841309,0.125,1.484375,-0.390625
1695750545537,-0.05908203,-0.99420166,0.032409668,0.953125,1.234375,-0.46875
1695750545583,-0.07421875,-0.9846802,0.03265381,0.21875,0.96875,-0.34375
1695750545613,-0.072509766,-0.9812622,0.03387451,-0.140625,0.9375,-0.375
1695750545658,-0.064697266,-0.9949341,0.027526855,-0.390625,0.828125,-0.546875
1695750545688,-0.07836914,-0.9846802,0.023620605,-0.828125,0.53125,-0.625
1695750545734,-0.06201172,-0.98272705,0.02532959,-0.734375,0.875,-1.359375
1695750545778,-0.088134766,-0.9824829,0.032165527,0.421875,0.203125,-0.578125
1695750545809,-0.06591797,-0.9871216,0.026306152,-1.046875,0.34375,-1.5
1695750545853,-0.08251953,-0.9819946,0.032409668,-0.84375,0.5625,-1.359375
1695750545900,-0.08642578,-0.991272,0.042419434,0.53125,0.671875,-1.046875
1695750545927,-0.07788086,-0.9824829,0.026062012,-0.078125,1.765625,-0.828125
1695750545974,-0.080322266,-0.98931885,0.030944824,0.125,1.9375,-0.953125
1695750546033,-0.087890625,-0.98565674,0.03656006,1.40625,2.453125,-0.75
1695750546048,-0.08227539,-0.9937134,0.031188965,1.03125,2.65625,-0.34375
1695750546093,-0.07861328,-0.97662354,0.030700684,-0.203125,2.96875,-0.703125
1695750546140,-0.08300781,-0.9961548,0.035583496,-0.03125,3.453125,-0.46875
1695750546167,-0.08251953,-0.98638916,0.030456543,0.609375,3.625,-0.109375
1695750546213,-0.06616211,-0.9788208,0.030700684,1.203125,3.703125,0.046875
1695750546258,-0.07299805,-0.98516846,0.031921387,0.234375,2.984375,0.140625
1695750546287,-0.072265625,-0.9981079,0.031188965,0.109375,2.5,0.0625
1695750546333,-0.06982422,-0.9937134,0.031433105,0.375,1.921875,-0.0625
1695750546378,-0.06665039,-0.98687744,0.018249512,0.234375,1.765625,-0.296875
1695750546423,-0.072265625,-0.9898071,0.0289917,0.375,1.890625,-0.03125
1695750546452,-0.072753906,-0.987854,0.03289795,-0.140625,2.0,-0.046875
1695750546483,-0.08081055,-0.9837036,0.027038574,0.796875,2.390625,0.234375
1695750546528,-0.07788086,-0.9902954,0.03289795,0.625,2.5,-0.125
1695750546573,-0.072509766,-0.98565674,0.031188965,0.5625,2.3125,0.046875
1695750546604,-0.068847656,-0.98760986,0.032409668,0.109375,2.140625,-0.390625
1695750546650,-0.07080078,-0.9859009,0.029724121,0.015625,2.125,-0.265625
1695750546708,-0.07055664,-0.98321533,0.0289917,0.453125,1.734375,-0.625
1695750546722,-0.075927734,-0.99053955,0.028015137,0.203125,2.078125,-0.046875
1695750546768,-0.072021484,-0.98150635,0.026062012,0.546875,2.546875,-0.328125
1695750546814,-0.07495117,-0.9898071,0.030944824,0.75,2.609375,-0.328125
1695750546843,-0.0625,-1.0007935,0.032165527,1.4375,2.609375,-0.375
1695750546888,-0.05908203,-0.97198486,0.023864746,0.875,1.375,-0.921875
1695750546933,-0.072021484,-0.98516846,0.02508545,-0.15625,1.640625,-0.46875
1695750546962,-0.071777344,-0.99176025,0.03363037,0.875,1.40625,-0.25
1695750547008,-0.060791016,-0.98101807,0.0036010742,-0.890625,0.96875,-0.421875
1695750547084,-0.064941406,-0.98101807,0.014587402,-2.078125,0.734375,-1.203125
1695750547089,-0.080322266,-0.9939575,0.036315918,0.875,1.578125,-0.53125
1695750547128,-0.0637207,-0.9780884,0.022644043,-0.375,2.296875,-1.0
1695750547158,-0.07080078,-0.9932251,0.024597168,1.15625,2.875,-0.515625
1695750547203,-0.06640625,-0.9841919,0.023620605,-0.328125,3.015625,-0.65625
1695750547249,-0.07006836,-0.98931885,0.024108887,-0.40625,2.375,-0.328125
1695750547278,-0.05908203,-0.9812622,0.018005371,-0.390625,1.3125,-0.828125
1695750547324,-0.060791016,-0.98443604,0.018981934,-1.15625,0.9375,-0.609375
1695750547384,-0.07763672,-0.9981079,0.027526855,0.09375,1.125,-0.53125
1695750547397,-0.07348633,-0.9763794,0.012390137,-0.90625,1.375,-0.671875
1695750547443,-0.07055664,-0.9944458,0.017028809,-0.359375,1.46875,-0.484375
1695750547488,-0.07885742,-0.98223877,0.026550293,-0.09375,1.6875,-0.890625
1695750547549,-0.07055664,-0.9846802,0.026550293,-0.734375,1.953125,-0.328125
1695750547563,-0.0715332,-0.99053955,0.019226074,-0.375,1.875,-0.46875
1695750547608,-0.064697266,-0.98443604,0.034362793,-0.078125,1.90625,-0.5625
1695750547637,-0.06958008,-0.986145,0.02947998,0.046875,1.734375,-0.46875
1695750547684,-0.07128906,-0.98394775,0.026306152,-0.265625,1.3125,-0.453125
1695750547728,-0.07055664,-0.99102783,0.026306152,-0.046875,1.609375,-0.53125
1695750547772,-0.07299805,-0.98516846,0.02142334,0.09375,1.578125,-0.3125
1695750547803,-0.071777344,-0.986145,0.02923584,0.03125,1.609375,-0.5
1695750547849,-0.064941406,-0.9883423,0.028259277,0.078125,1.640625,-0.234375
1695750547877,-0.07519531,-0.9902954,0.024353027,-0.0625,1.625,-0.359375
1695750547924,-0.06616211,-0.9885864,0.027282715,-0.125,1.59375,-0.546875
1695750547954,-0.07006836,-0.98028564,0.02557373,-0.140625,1.4375,-0.53125
1695750547998,-0.0690918,-0.9807739,0.026794434,-0.265625,1.6875,-0.484375
1695750548044,-0.07788086,-0.9924927,0.028259277,-0.6875,1.46875,-0.109375
1695750548073,-0.07836914,-0.9920044,0.0289917,-1.390625,1.484375,0.015625
1695750548117,-0.06347656,-0.9800415,0.03289795,-1.53125,2.078125,-0.609375
1695750548194,-0.067871094,-0.99005127,0.030944824,-0.234375,1.53125,0.109375
1695750548199,-0.056640625,-0.9883423,0.03265381,-1.625,1.4375,-0.671875
1695750548239,-0.064941406,-0.98809814,0.0368042,-1.0625,1.9375,0.0
1695750548314,-0.06640625,-0.97857666,0.04071045,-0.828125,1.171875,-0.203125
1695750548320,-0.05517578,-0.9824829,0.03265381,0.125,1.703125,-0.203125
1695750548359,-0.0715332,-1.0022583,0.03729248,0.21875,1.46875,-0.1875
1695750548404,-0.051513672,-0.97906494,0.032165527,0.421875,1.828125,-0.6875
1695750548433,-0.064208984,-0.991272,0.038513184,1.21875,1.0625,-0.421875
1695750548478,-0.068359375,-0.97979736,0.030456543,-0.203125,0.796875,-0.796875
1695750548538,-0.0625,-0.98883057,0.031188965,1.140625,0.96875,-0.75
1695750548553,-0.06616211,-0.9800415,0.026062012,0.578125,1.15625,-0.609375
1695750548599,-0.060546875,-0.98516846,0.031677246,1.09375,1.421875,-0.921875
1695750548628,-0.068603516,-0.9793091,0.02508545,1.46875,2.0,-0.828125
1695750548675,-0.071777344,-0.9793091,0.029968262,1.125,3.234375,-0.921875
1695750548718,-0.061767578,-0.9902954,0.028503418,1.3125,3.734375,-1.046875
1695750548764,-0.06298828,-0.9734497,0.026306152,1.5625,2.234375,-1.828125
1695750548792,-0.07910156,-0.9898071,0.02508545,1.28125,2.046875,-1.890625
1695750548837,-0.088134766,-1.003479,0.026794434,-0.421875,2.484375,-1.234375
1695750548867,-0.06298828,-0.99542236,0.0060424805,-1.578125,1.9375,-0.984375
1695750548913,-0.060546875,-0.98760986,0.013366699,-2.46875,1.15625,-0.4375
1695750548957,-0.07128906,-0.9907837,0.034362793,-2.375,0.609375,-0.546875
1695750548988,-0.053710938,-0.9841919,0.039245605,-2.1875,0.546875,-0.578125
1695750549033,-0.07910156,-0.9817505,0.043640137,-1.359375,-0.1875,-0.8125
1695750549093,-0.07397461,-0.9783325,0.03778076,-0.5,0.359375,-0.984375
1695750549138,-0.072265625,-0.9829712,0.034606934,1.75,0.484375,-1.578125
1695750549152,-0.0793457,-0.9817505,0.0446167,2.640625,1.625,-1.421875
1695750549213,-0.08276367,-1.0005493,0.026306152,1.703125,1.890625,-2.0625
1695750549228,-0.08300781,-0.9805298,0.024353027,-0.015625,1.03125,-2.203125
1695750549275,-0.079589844,-0.99664307,0.026062012,-0.625,2.375,-1.53125
1695750549317,-0.07080078,-0.9883423,0.016052246,-2.40625,1.921875,-1.609375
1695750549347,-0.08959961,-0.99102783,0.034118652,-0.828125,2.0625,-0.46875
1695750549393,-0.083740234,-0.9871216,0.032409668,-0.375,1.984375,-0.078125
1695750549424,-0.076416016,-0.98760986,0.027770996,-0.0625,1.78125,0.359375
1695750549468,-0.08276367,-0.99224854,0.030944824,-0.53125,0.890625,0.15625
1695750549528,-0.076416016,-0.9771118,0.04852295,0.5,1.984375,0.09375
1695750549542,-0.07739258,-0.99468994,0.028015137,-1.265625,2.1875,-0.1875
1695750549588,-0.08959961,-0.98223877,0.039001465,-1.546875,2.09375,-0.4375
1695750549635,-0.07836914,-0.9890747,0.034606934,0.15625,2.375,-0.1875
1695750549662,-0.07348633,-0.9834595,0.02508545,-0.8125,2.203125,0.0625
1695750549708,-0.07446289,-0.98883057,0.022644043,-0.890625,1.421875,-0.171875
1695750549753,-0.07006836,-0.9795532,0.024108887,-0.640625,0.546875,-0.1875
1695750549782,-0.07519531,-0.9932251,0.046325684,-0.546875,0.296875,0.375
1695750549829,-0.0769043,-0.98883057,0.047058105,-0.859375,-0.046875,0.828125
1695750549873,-0.083496094,-0.9841919,0.050964355,-2.015625,0.59375,0.375
1695750549903,-0.07519531,-0.9927368,0.04046631,-2.25,1.46875,-0.171875
1695750549947,-0.07104492,-0.9890747,0.047546387,-1.140625,1.890625,-0.625
1695750549993,-0.067871094,-0.9780884,0.043884277,-0.03125,2.40625,-0.703125
1695750550022,-0.06347656,-0.98223877,0.04827881,0.5,2.015625,-1.109375
1695750550083,-0.07421875,-0.99053955,0.044128418,0.125,1.8125,-1.515625
1695750550112,-0.08276367,-0.98809814,0.034606934,0.125,1.5,-1.046875
1695750550146,-0.06542969,-0.9949341,0.035095215,-0.4375,1.890625,-1.6875
1695750550203,-0.084472656,-0.9939575,0.0524292,1.15625,1.703125,-0.828125
1695750550217,-0.068115234,-0.986145,0.028503418,-1.1875,1.765625,-1.3125
1695750550278,-0.07763672,-0.98931885,0.04046631,-1.71875,1.59375,-1.40625
1695750550308,-0.07885742,-0.9907837,0.054382324,0.421875,1.75,-1.328125
1695750550338,-0.07128906,-0.98394775,0.04852295,-0.421875,1.65625,-1.09375
1695750550383,-0.078125,-0.987854,0.04168701,-0.296875,1.84375,-0.96875
1695750550430,-0.08300781,-0.9819946,0.043395996,0.296875,1.453125,-0.9375
1695750550457,-0.08496094,-0.9834595,0.050476074,0.546875,1.78125,-0.484375
1695750550503,-0.088134766,-0.9849243,0.039978027,0.421875,1.453125,-0.640625
1695750550548,-0.08691406,-0.97784424,0.04534912,0.28125,1.625,-0.5
1695750550583,-0.084228516,-0.99176025,0.04437256,0.0625,1.1875,-0.84375
1695750550622,-0.07836914,-0.98028564,0.039978027,0.046875,1.640625,-1.078125
1695750550668,-0.088134766,-0.9829712,0.051452637,0.015625,1.296875,-0.8125
1695750550697,-0.092041016,-0.9885864,0.047790527,0.34375,1.078125,-0.53125
1695750550745,-0.0871582,-0.98760986,0.039978027,-0.21875,1.4375,-0.859375
1695750550788,-0.09057617,-0.989563,0.047302246,0.03125,1.40625,-0.9375
1695750550817,-0.0871582,-0.98272705,0.04534912,-0.140625,1.109375,-0.84375
1695750550879,-0.08496094,-0.98809814,0.03704834,-0.375,1.28125,-0.875
1695750550893,-0.083496094,-0.98931885,0.04534912,-0.90625,1.328125,-1.328125
1695750550938,-0.088378906,-0.98565674,0.04437256,-0.265625,1.390625,-1.03125
1695750550999,-0.09082031,-0.9819946,0.046569824,-0.046875,1.625,-0.921875
1695750551012,-0.088134766,-0.98028564,0.04437256,-0.28125,1.6875,-0.953125
1695750551058,-0.08544922,-0.97857666,0.058044434,0.46875,1.5625,-0.40625
1695750551103,-0.09350586,-0.9902954,0.038269043,-0.09375,1.8125,-0.390625
1695750551163,-0.072753906,-0.9805298,0.041931152,-0.40625,1.296875,-0.9375
1695750551178,-0.09790039,-0.99420166,0.058044434,0.546875,1.375,-0.375
1695750551223,-0.08886719,-0.98443604,0.04901123,0.015625,1.46875,-0.71875
1695750551253,-0.084472656,-0.98565674,0.046081543,-1.140625,1.8125,-0.46875
1695750551298,-0.09008789,-0.99005127,0.048034668,-1.3125,1.78125,-0.5
1695750551343,-0.09350586,-0.99102783,0.0524292,-1.15625,1.953125,-0.046875
1695750551373,-0.0859375,-0.9873657,0.049987793,-1.484375,2.015625,0.4375
1695750551419,-0.07519531,-0.9783325,0.04949951,-2.109375,1.796875,0.640625
1695750551462,-0.07788086,-0.9873657,0.054870605,-0.796875,1.546875,0.578125
1695750551509,-0.07495117,-0.9714966,0.051696777,0.265625,1.40625,0.484375
1695750551537,-0.08203125,-0.98150635,0.0602417,1.40625,1.515625,0.28125
1695750551599,-0.08154297,-0.9849243,0.05682373,2.640625,1.3125,-0.390625
1695750551612,-0.09277344,-0.9788208,0.04144287,3.484375,1.25,-0.609375
1695750551658,-0.091796875,-0.99591064,0.043395996,1.140625,1.578125,-1.046875
1695750551689,-0.07373047,-0.9890747,0.042907715,0.21875,1.9375,-0.796875
1695750551734,-0.07788086,-0.98443604,0.046081543,-1.234375,1.953125,-0.609375
1695750551778,-0.07763672,-0.99224854,0.04852295,-1.265625,1.375,-0.53125
1695750551807,-0.07080078,-0.97979736,0.051696777,-0.859375,1.125,-0.40625
1695750551854,-0.07324219,-0.9817505,0.049743652,0.5625,0.671875,-0.578125
1695750551898,-0.087646484,-0.9866333,0.04901123,0.234375,0.578125,-0.703125
1695750551927,-0.087890625,-0.9849243,0.05291748,0.71875,0.625,-0.5625
1695750551973,-0.07080078,-0.99420166,0.04168701,-0.921875,1.203125,-1.453125
1695750552018,-0.10498047,-0.9841919,0.057556152,1.28125,1.1875,-0.453125
1695750552048,-0.072021484,-0.98638916,0.030700684,0.078125,1.84375,-0.8125
1695750552093,-0.080078125,-0.9883423,0.034606934,-0.65625,1.546875,-0.640625
1695750552138,-0.083496094,-0.9898071,0.05316162,0.921875,1.234375,-0.53125
1695750552167,-0.07470703,-0.9746704,0.042175293,0.0625,1.375,-0.4375
1695750552213,-0.08862305,-0.9834595,0.0446167,1.171875,1.015625,-0.125
1695750552289,-0.072021484,-0.98516846,0.04510498,-0.09375,0.796875,-0.65625
1695750552294,-0.08178711,-0.9824829,0.039489746,0.390625,1.609375,-0.28125
1695750552348,-0.0769043,-0.9824829,0.03363037,0.484375,1.40625,-0.59375
1695750552363,-0.0871582,-0.9854126,0.039001465,-0.125,1.734375,-0.765625
1695750552438,-0.091308594,-0.99102783,0.04046631,0.484375,1.65625,-0.515625
1695750552453,-0.07470703,-0.98394775,0.03314209,0.484375,1.53125,-0.640625
1695750552497,-0.07788086,-0.9866333,0.042663574,1.21875,1.703125,-0.390625
1695750552544,-0.07739258,-0.9915161,0.038513184,1.03125,1.5625,-0.46875
1695750552573,-0.08862305,-0.9793091,0.03338623,0.34375,1.859375,-0.359375
1695750552603,-0.07763672,-0.9866333,0.03704834,0.90625,1.40625,-0.390625
1695750552648,-0.080078125,-0.97540283,0.038269043,0.515625,1.296875,-0.328125
1695750552693,-0.079589844,-0.9885864,0.03338623,0.28125,1.3125,-0.53125
1695750552723,-0.080078125,-0.9819946,0.027770996,0.28125,1.234375,-0.5
1695750552770,-0.07739258,-0.9890747,0.028259277,0.46875,1.46875,-0.53125
1695750552814,-0.083496094,-0.98931885,0.030212402,0.46875,2.03125,-0.875
1695750552858,-0.08520508,-0.9771118,0.028503418,0.265625,2.171875,-0.8125
1695750552887,-0.08959961,-0.9920044,0.03363037,0.671875,2.34375,-0.296875
1695750552934,-0.09057617,-0.99102783,0.031921387,1.171875,2.15625,0.046875
1695750552963,-0.0703125,-0.9793091,0.024353027,0.015625,1.640625,-0.625
1695750553008,-0.08642578,-0.9866333,0.035339355,0.328125,1.375,-0.140625
1695750553054,-0.071777344,-0.9849243,0.023376465,-1.3125,1.703125,-0.921875
1695750553083,-0.07446289,-0.99346924,0.026062012,-1.34375,1.234375,-0.8125
1695750553128,-0.0925293,-0.9859009,0.04168701,0.265625,1.453125,-0.78125
1695750553173,-0.0793457,-0.9817505,0.024353027,-0.734375,1.890625,-0.96875
1695750553218,-0.080322266,-0.99102783,0.032165527,-0.46875,1.78125,-0.765625
1695750553247,-0.080078125,-0.97491455,0.039489746,-0.5625,1.96875,-0.875
1695750553278,-0.08227539,-0.98272705,0.03265381,-0.28125,1.890625,-0.296875
1695750553323,-0.06591797,-0.9805298,0.022644043,-0.03125,1.5625,-0.5
1695750553414,-0.08325195,-0.98443604,0.03265381,-0.125,1.6875,-0.4375
1695750553420,-0.08325195,-0.9963989,0.0368042,-0.03125,1.515625,-0.046875
1695750553458,-0.0703125,-0.96954346,0.034362793,0.4375,1.609375,-0.640625
1695750553490,-0.083740234,-0.9956665,0.0368042,0.703125,1.34375,-0.40625
1695750553518,-0.083740234,-0.9883423,0.030212402,0.0625,1.4375,-0.640625
1695750553563,-0.083740234,-0.9793091,0.024108887,0.375,1.421875,-0.46875
1695750553624,-0.080322266,-0.98687744,0.035095215,-0.1875,1.703125,-0.703125
1695750553638,-0.0859375,-0.98931885,0.03265381,-0.359375,1.15625,-1.078125
1695750553714,-0.075927734,-0.98516846,0.023132324,0.328125,1.34375,-1.34375
1695750553758,-0.088378906,-0.98028564,0.029724121,0.21875,1.625,-1.03125
1695750553763,-0.092041016,-0.9859009,0.029724121,1.28125,1.390625,-1.6875
1695750553820,-0.080078125,-0.98565674,0.031433105,1.046875,1.5,-1.515625
1695750553832,-0.088134766,-0.9898071,0.020446777,1.546875,1.359375,-1.671875
1695750553878,-0.084228516,-0.9841919,0.027038574,1.21875,1.4375,-1.421875
1695750553923,-0.079833984,-0.989563,0.02557373,0.75,1.640625,-1.125
1695750553970,-0.09472656,-0.989563,0.022644043,0.65625,1.609375,-0.453125
1695750554014,-0.09008789,-0.98883057,0.026306152,0.1875,2.265625,-0.3125
1695750554042,-0.09106445,-0.98516846,0.031921387,1.265625,2.578125,0.125
1695750554073,-0.08642578,-0.98687744,0.013366699,-0.15625,3.359375,0.671875
1695750554119,-0.07910156,-0.9898071,0.02532959,-1.90625,3.0625,0.328125
1695750554164,-0.08984375,-0.98565674,0.034118652,-1.09375,2.46875,0.359375
1695750554192,-0.08129883,-0.98883057,0.026794434,-1.71875,1.875,-0.265625
1695750554238,-0.08911133,-0.9871216,0.027770996,-2.40625,2.25,-0.78125
1695750554283,-0.079833984,-0.98638916,0.027770996,-2.15625,2.25,-0.765625
1695750554330,-0.0847168,-0.9915161,0.02947998,-1.625,2.796875,-0.96875
1695750554357,-0.08325195,-0.9885864,0.04510498,-1.71875,1.78125,-0.5
1695750554403,-0.076416016,-0.9849243,0.03363037,-3.171875,2.859375,-0.15625
1695750554432,-0.078125,-0.99713135,0.04510498,-2.625,2.109375,1.09375
1695750554478,-0.06347656,-0.98931885,0.04095459,-1.75,0.984375,1.296875
1695750554523,-0.060302734,-0.97442627,0.051940918,-0.84375,1.09375,0.84375
1695750554553,-0.07861328,-0.9729614,0.047302246,-0.3125,0.421875,0.734375
1695750554629,-0.075683594,-0.9883423,0.050476074,1.140625,0.828125,-0.21875
1695750554636,-0.08642578,-0.98223877,0.043640137,2.125,2.0625,-0.734375
1695750554676,-0.09448242,-0.9866333,0.039245605,2.046875,2.359375,-0.953125
1695750554718,-0.07885742,-0.9854126,0.038513184,2.171875,3.0625,-0.75
1695750554748,-0.068359375,-0.9885864,0.039733887,1.5,2.53125,-0.4375
1695750554795,-0.07397461,-0.99176025,0.030212402,0.53125,1.921875,-0.015625
1695750554838,-0.06689453,-0.99713135,0.041931152,-0.078125,1.53125,0.109375
1695750554867,-0.07543945,-0.9859009,0.038024902,-0.390625,0.734375,-0.03125
1695750554928,-0.07080078,-0.99224854,0.04144287,0.75,1.203125,-0.1875
1695750554957,-0.083984375,-0.99005127,0.02947998,0.046875,1.28125,-0.625
1695750554988,-0.0847168,-0.99224854,0.045837402,1.140625,1.71875,-0.90625
1695750555034,-0.072753906,-0.9837036,0.04119873,1.0625,2.765625,-1.4375
1695750555076,-0.084472656,-0.9771118,0.04071045,1.078125,2.328125,-1.28125
1695750555107,-0.06713867,-0.99224854,0.022644043,0.0625,2.234375,-0.796875
1695750555153,-0.06347656,-0.9824829,0.027526855,0.75,1.78125,-1.4375
1695750555213,-0.0859375,-0.9939575,0.034118652,0.90625,1.53125,-0.796875
1695750555227,-0.079833984,-0.9871216,0.031433105,0.234375,1.75,-0.765625
1695750555273,-0.08081055,-0.9859009,0.035583496,0.78125,2.328125,-0.5
1695750555333,-0.076171875,-0.99420166,0.022399902,0.296875,1.90625,-0.828125
1695750555348,-0.0859375,-0.98760986,0.02923584,0.46875,1.890625,-0.703125
1695750555395,-0.07421875,-0.9793091,0.03265381,1.375,1.84375,-0.84375
1695750555423,-0.08520508,-0.9883423,0.022644043,0.6875,1.765625,-0.34375
1695750555468,-0.08178711,-0.99053955,0.026062012,0.28125,1.40625,-0.671875
1695750555513,-0.0703125,-0.986145,0.016296387,0.578125,1.796875,-0.4375
1695750555544,-0.08642578,-0.9871216,0.026306152,0.625,1.75,-0.375
1695750555588,-0.08569336,-0.99053955,0.024108887,0.8125,1.671875,-0.25
1695750555633,-0.08227539,-0.9819946,0.015808105,0.375,1.671875,-0.921875
1695750555663,-0.08911133,-0.98638916,0.020935059,0.546875,1.703125,-0.90625
1695750555708,-0.083740234,-0.9859009,0.02532959,0.40625,1.78125,-1.0
1695750555753,-0.08325195,-0.98687744,0.0211792,0.5,1.703125,-1.3125
1695750555783,-0.09057617,-0.9846802,0.019226074,0.484375,1.609375,-0.890625
1695750555828,-0.08300781,-0.9866333,0.016296387,0.484375,1.796875,-1.0625
1695750555873,-0.08496094,-0.986145,0.017028809,0.515625,2.015625,-1.046875
1695750555902,-0.07763672,-0.9768677,0.015319824,0.84375,1.15625,-1.09375
1695750555948,-0.09350586,-0.9871216,0.014587402,0.296875,1.6875,-1.15625
1695750556008,-0.08666992,-0.9841919,0.018737793,0.59375,1.59375,-1.265625
1695750556037,-0.087890625,-0.9837036,0.016296387,0.640625,1.40625,-1.109375
1695750556068,-0.08935547,-0.99591064,0.023864746,0.875,1.671875,-0.59375
1695750556097,-0.07495117,-0.9859009,6.713867E-4,0.0,1.9375,-0.703125
1695750556144,-0.08251953,-0.9817505,0.0067749023,-1.34375,1.375,-0.921875
1695750556188,-0.08984375,-1.0003052,0.026062012,-0.21875,1.640625,-0.75
1695750556219,-0.08911133,-0.9841919,0.019470215,-0.75,1.765625,-0.53125
1695750556279,-0.084472656,-0.9883423,0.01751709,-0.859375,2.203125,-0.078125
1695750556308,-0.088378906,-0.9937134,0.017028809,-0.390625,2.75,0.421875
1695750556338,-0.087890625,-0.99176025,0.018737793,-0.046875,2.640625,0.640625
1695750556383,-0.08154297,-0.9837036,0.02166748,0.65625,2.546875,0.21875
1695750556430,-0.08862305,-0.98516846,0.028015137,-0.0625,2.765625,0.359375
1695750556457,-0.088134766,-0.9907837,0.019714355,0.75,2.03125,0.09375
1695750556503,-0.07470703,-0.9800415,0.0079956055,1.15625,1.6875,-0.609375
1695750556566,-0.08496094,-0.9873657,0.016540527,0.328125,1.703125,-0.609375
1695750556577,-0.084472656,-0.98443604,0.018005371,-0.671875,1.71875,-0.875
1695750556624,-0.08520508,-0.9885864,0.0211792,0.046875,1.296875,-1.125
1695750556668,-0.07739258,-0.97613525,0.012634277,0.09375,1.84375,-0.671875
1695750556697,-0.092041016,-0.9812622,0.018737793,-0.28125,1.3125,-0.75
1695750556742,-0.07324219,-0.9788208,0.01361084,-0.15625,1.171875,-0.796875
1695750556787,-0.08691406,-0.9800415,0.01727295,-0.828125,0.734375,-1.1875
1695750556817,-0.080566406,-0.9834595,0.015808105,-0.75,0.734375,-1.296875
1695750556864,-0.08544922,-0.9883423,0.016540527,-0.875,0.984375,-1.5625
1695750556891,-0.08325195,-0.9859009,0.01727295,-1.28125,0.890625,-1.5625
1695750556938,-0.084228516,-0.9890747,0.016784668,-2.21875,0.65625,-1.796875
1695750556983,-0.08935547,-0.987854,0.026794434,-3.0,-0.296875,-2.359375
