# Sensor type: Respeck
# Activity type: Running
# Activity subtype: Normal
# Subject id: s2063346
# Notes: 1.10
timestamp,accel_x,accel_y,accel_z,gyro_x,gyro_y,gyro_z
1695748030910,0.030761719,-0.9829712,0.12420654,2.59375,0.15625,1.03125
1695748030956,-0.055908203,-1.0144653,0.15692139,-0.15625,3.0625,-2.34375
1695748030985,-0.06201172,-1.0176392,0.07366943,4.359375,7.578125,-6.9375
1695748031027,0.17358398,-0.9937134,0.008483887,2.671875,5.125,-0.5
1695748031072,0.030029297,-0.99298096,0.047790527,-1.65625,-0.421875,1.5625
1695748031102,-0.04321289,-0.98687744,0.027526855,0.953125,1.359375,0.859375
1695748031179,-0.001953125,-0.9212036,0.066589355,4.25,4.03125,-1.46875
1695748031206,-0.010253906,-0.95440674,0.041931152,1.28125,5.328125,-3.140625
1695748031221,-0.0053710938,-0.9282837,-0.0025024414,2.21875,6.4375,-1.71875
1695748031267,0.005126953,-0.9819946,-0.013000488,1.140625,4.1875,-1.546875
1695748031315,0.010253906,-1.0213013,0.035583496,-1.6875,3.515625,0.625
1695748031360,-0.06201172,-0.99176025,0.03289795,-2.640625,3.453125,-0.078125
1695748031409,-0.02319336,-1.0142212,0.026794434,-2.15625,2.765625,-0.171875
1695748031432,-0.020263672,-1.0130005,0.049743652,-1.546875,4.046875,-1.859375
1695748031464,-0.057128906,-1.0266724,0.053649902,-3.078125,3.765625,-0.71875
1695748031507,-0.05908203,-1.0281372,0.027770996,1.03125,3.0625,-0.890625
1695748031548,-0.027832031,-0.9902954,0.030944824,3.71875,5.34375,-0.171875
1695748031584,-0.057128906,-0.98565674,0.039001465,2.734375,5.65625,1.109375
1695748031642,-0.04248047,-0.95196533,0.0138549805,2.3125,5.0625,1.21875
1695748031656,0.017578125,-0.9495239,0.031433105,3.015625,0.421875,3.46875
1695748031701,0.038085938,-1.000061,0.043640137,-4.0625,-7.453125,4.265625
1695748031747,0.017822266,-1.0303345,0.105407715,-6.515625,-12.125,1.828125
1695748031776,-0.08081055,-0.9248657,0.04534912,-5.03125,-11.375,-2.078125
1695748031822,0.049072266,-0.9512329,0.03704834,7.8125,-1.5,-2.640625
1695748031867,0.24316406,-1.0518188,0.10223389,6.3125,0.171875,-0.5
1695748031897,0.020019531,-0.954895,0.09710693,-6.453125,-6.046875,-1.28125
1695748031941,-0.0769043,-1.0715942,0.101501465,-1.9375,-4.578125,0.03125
1695748031986,0.08300781,-1.1028442,0.0914917,5.25,0.984375,-0.484375
1695748032017,0.125,-0.89678955,0.07269287,3.328125,-1.90625,3.5625
1695748032061,-0.013183594,-0.9573364,0.12640381,0.53125,-2.28125,3.484375
1695748032107,0.030273438,-0.9404907,0.11468506,3.4375,1.90625,1.96875
1695748032137,0.061767578,-0.8880005,0.09710693,1.078125,4.078125,0.296875
1695748032196,0.04663086,-0.98150635,0.09857178,-2.640625,4.34375,-2.484375
1695748032211,-0.12133789,-1.039856,0.14178467,-6.671875,14.4375,-6.40625
1695748032257,0.1484375,-1.1189575,-0.09259033,6.28125,6.421875,-3.671875
1695748032317,0.1237793,-0.8735962,-0.028625488,5.046875,5.34375,2.734375
1695748032332,-0.1706543,-1.0327759,0.06756592,-4.234375,9.71875,-1.625
1695748032379,0.03930664,-0.97320557,-0.023498535,1.84375,11.96875,-4.203125
1695748032423,0.08496094,-0.9800415,-0.009338379,-1.796875,6.8125,-1.859375
1695748032468,-0.04736328,-1.0686646,0.018005371,1.046875,6.296875,-2.078125
1695748032496,-0.03173828,-1.0056763,0.008483887,2.75,7.96875,-3.359375
1695748032542,0.00390625,-1.0108032,0.015319824,2.359375,6.859375,-2.375
1695748032572,-0.040527344,-0.9710083,0.009460449,3.140625,5.578125,-1.046875
1695748032617,-0.01977539,-0.9336548,0.025817871,3.109375,2.0,0.671875
1695748032663,-0.032226562,-0.9434204,0.010925293,-0.796875,-0.734375,1.296875
1695748032693,-0.017333984,-0.94854736,0.01727295,-2.34375,-3.046875,1.53125
1695748032739,-0.024902344,-0.9902954,0.032409668,-4.171875,-2.40625,0.09375
1695748032782,0.057861328,-0.97320557,0.031677246,-8.3125,-7.859375,-2.140625
1695748032812,-0.036132812,-1.0217896,0.089538574,-3.0625,-3.5625,-4.4375
1695748032873,0.13769531,-1.0586548,0.013122559,2.40625,4.640625,-2.140625
1695748032903,0.076171875,-0.9168091,0.07513428,-1.859375,-0.453125,-1.390625
1695748032936,-0.0146484375,-0.9927368,0.09320068,-4.375,-5.421875,1.328125
1695748032979,0.040527344,-1.0691528,0.09906006,0.78125,1.328125,0.234375
1695748033022,0.17358398,-0.94244385,0.04949951,1.1875,-3.0625,4.984375
1695748033052,0.06665039,-0.9854126,0.10003662,3.921875,-5.640625,7.3125
1695748033099,0.020507812,-0.9678345,0.09832764,6.453125,-3.765625,7.0
1695748033129,0.06323242,-0.9229126,0.082214355,7.609375,-2.1875,6.0
1695748033172,0.039794922,-0.93585205,0.10467529,6.546875,-0.6875,4.09375
1695748033217,0.028564453,-0.9819946,0.10272217,3.265625,1.78125,0.984375
1695748033247,0.032714844,-1.0100708,0.14593506,-2.890625,5.046875,-3.9375
1695748033292,-0.15332031,-1.0725708,0.062683105,-3.40625,10.125,-10.0625
1695748033340,0.30664062,-1.0657349,-0.15142822,5.578125,6.546875,-1.21875
1695748033367,0.20166016,-0.911438,-0.0032348633,-4.625,-2.328125,4.609375
1695748033413,-0.2487793,-1.0684204,0.06903076,-1.109375,4.390625,-3.640625
1695748033460,0.08105469,-0.9072876,-0.10333252,8.65625,12.140625,-4.078125
1695748033487,0.20996094,-0.9048462,-0.07867432,-2.203125,3.625,-1.265625
1695748033531,-0.118896484,-1.0759888,-0.011291504,-1.5,3.890625,-2.484375
1695748033580,0.05078125,-0.99591064,-0.08404541,2.03125,7.359375,-2.75
1695748033609,0.096191406,-1.0161743,-0.024230957,2.03125,2.515625,0.0625
1695748033656,-0.064208984,-1.005188,-0.024230957,-2.109375,2.78125,0.015625
1695748033742,0.014160156,-0.9871216,-0.034240723,-1.859375,3.6875,0.921875
1695748033746,0.022705078,-0.9812622,-0.018127441,-1.46875,2.265625,0.5
1695748033773,-0.021728516,-0.94610596,0.018249512,-2.40625,0.65625,0.625
1695748033803,0.009765625,-0.98883057,0.027038574,-6.0,-1.921875,-0.515625
1695748033861,0.037597656,-1.017395,0.05218506,-7.34375,-6.296875,-2.34375
1695748033891,-0.071777344,-0.9812622,0.054382324,-7.359375,-7.625,-3.765625
1695748033937,-0.013916016,-1.0379028,0.022155762,-3.875,-0.890625,-6.3125
1695748033968,0.16772461,-0.9729614,0.042419434,9.140625,7.484375,-4.609375
1695748034014,0.075683594,-0.87457275,0.04071045,-0.546875,-1.234375,-5.625
1695748034042,0.048095703,-0.8858032,0.028747559,-1.953125,-2.28125,2.09375
1695748034087,0.06982422,-1.0291138,0.08538818,-3.671875,-1.25,-0.28125
1695748034148,0.08227539,-1.0134888,0.1161499,-4.421875,-1.453125,-0.3125
1695748034162,0.041992188,-1.0457153,0.10467529,-2.703125,-2.078125,-0.609375
1695748034223,0.05493164,-1.024231,0.08441162,1.640625,-0.859375,0.484375
1695748034268,0.10180664,-0.95098877,0.08074951,0.8125,-1.640625,1.375
1695748034281,0.044677734,-0.9561157,0.14422607,3.40625,-1.921875,4.625
1695748034328,-0.005859375,-0.9360962,0.12786865,3.125,1.5625,2.09375
1695748034403,0.018066406,-0.9209595,0.10662842,2.3125,3.265625,0.328125
1695748034407,-0.06323242,-0.99298096,0.15301514,-2.25,6.125,-3.90625
1695748034448,-0.17504883,-1.0098267,0.13275146,-1.578125,17.703125,-11.203125
1695748034482,0.23339844,-1.0825806,-0.097229004,3.265625,6.265625,-2.84375
1695748034523,0.4206543,-0.958313,-0.022766113,4.734375,-5.15625,14.9375
1695748034583,-0.39892578,-1.0044556,0.10296631,-8.046875,3.5625,-0.8125
1695748034597,-0.020507812,-0.90045166,-0.054504395,11.953125,12.6875,-5.03125
1695748034648,0.25097656,-0.9859009,0.02923584,-2.625,4.328125,-0.09375
1695748034686,-0.111083984,-1.107727,-0.034484863,-0.984375,2.640625,-1.078125
1695748034718,-0.060302734,-0.9854126,-0.021057129,6.328125,9.84375,-5.28125
1695748034761,0.09765625,-1.034729,0.011657715,4.8125,6.609375,-0.453125
1695748034806,-0.08325195,-0.97906494,-0.008361816,2.109375,6.421875,-0.78125
1695748034837,-0.037841797,-0.98223877,-0.02178955,3.5,6.5625,0.046875
1695748034881,0.015625,-0.9924927,0.009460449,4.0,3.65625,1.9375
1695748034926,-0.0026855469,-0.9841919,0.019714355,0.953125,1.46875,3.578125
1695748034957,0.04736328,-0.9890747,0.0446167,-1.125,-3.5,3.90625
1695748035016,0.0048828125,-0.99346924,0.061462402,-5.96875,-8.296875,3.078125
1695748035046,-0.118652344,-0.9417114,0.058532715,-11.203125,-3.734375,-3.125
1695748035076,0.020263672,-1.0630493,-0.003479004,-8.25,-3.90625,-4.40625
1695748035137,0.083740234,-1.0088501,0.026550293,2.84375,-0.953125,-6.328125
1695748035167,0.15478516,-0.9439087,-0.024963379,3.390625,1.171875,-3.703125
1695748035200,0.092285156,-0.87628174,0.005065918,-2.171875,-5.84375,-1.34375
1695748035242,-0.009033203,-0.97052,0.042907715,-1.546875,-2.578125,-0.390625
1695748035272,0.06542969,-1.0166626,0.03704834,0.953125,2.953125,-2.8125
1695748035318,0.140625,-0.9866333,0.039001465,-1.078125,-1.03125,0.875
1695748035363,0.0625,-1.0535278,0.08148193,1.390625,-2.875,3.40625
1695748035392,0.027832031,-0.97857666,0.07952881,2.328125,-0.90625,2.9375
1695748035437,0.08642578,-0.9512329,0.090270996,4.0625,-1.140625,4.125
1695748035482,0.036376953,-0.9614868,0.10736084,4.640625,-0.5625,4.671875
1695748035511,0.020751953,-0.9729614,0.10321045,2.625,1.390625,3.953125
1695748035573,0.05102539,-0.97247314,0.066345215,2.65625,2.921875,0.265625
1695748035602,0.1003418,-0.9915161,0.05267334,0.734375,3.28125,-1.484375
1695748035638,-0.10913086,-0.9976196,0.23406982,-10.59375,11.671875,-4.328125
1695748035678,-0.036376953,-1.1814575,-0.09991455,4.0625,7.625,-8.375
1695748035722,0.45385742,-0.8081665,-0.12237549,12.8125,5.578125,7.953125
1695748035751,-0.12915039,-0.96099854,0.08782959,-11.796875,1.359375,2.015625
1695748035813,-0.10668945,-0.9902954,-0.044006348,8.703125,9.015625,1.375
1695748035873,0.19140625,-0.8826294,-0.06573486,0.921875,5.78125,-0.21875
1695748035877,-0.0107421875,-1.02594,-0.027893066,-2.34375,5.546875,0.546875
1695748035917,-0.06713867,-1.0618286,-0.039123535,0.25,7.25,-2.15625
1695748035948,0.095703125,-1.0283813,-0.013244629,3.46875,4.546875,-0.625
1695748035992,-0.0390625,-1.0164185,-0.008850098,1.21875,4.3125,0.40625
1695748036037,0.0031738281,-0.97540283,-0.026916504,2.296875,6.0,1.046875
1695748036083,0.024658203,-0.9614868,-0.024719238,1.75,2.65625,2.609375
1695748036113,0.056640625,-0.9663696,-0.020568848,-1.0625,-1.65625,3.484375
1695748036172,0.068359375,-1.010315,0.028747559,-3.453125,-6.953125,3.109375
1695748036187,-0.07470703,-0.9932251,0.05633545,-9.3125,-7.125,-0.6875
1695748036232,0.017333984,-1.048645,-0.054504395,-11.078125,-11.8125,-3.875
1695748036309,0.029785156,-1.0025024,0.06365967,1.9375,1.34375,-7.5625
1695748036313,0.18188477,-0.9277954,-0.002746582,3.375,1.3125,-5.234375
1695748036352,0.16381836,-0.9038696,0.031188965,-4.265625,-4.84375,-1.921875
1695748036398,0.0107421875,-0.9668579,0.030944824,-2.234375,-5.96875,0.1875
1695748036427,0.10449219,-1.0388794,0.074645996,1.375,0.359375,-2.328125
1695748036473,0.10961914,-0.94000244,0.058288574,-1.734375,-1.75,1.015625
1695748036519,0.06762695,-1.0496216,0.0680542,0.921875,-2.859375,2.21875
1695748036547,0.07714844,-0.9668579,0.09246826,3.28125,-0.109375,2.03125
1695748036594,0.09472656,-0.9651489,0.053894043,5.40625,-0.328125,2.828125
1695748036622,0.080566406,-0.96343994,0.08099365,3.875,-0.09375,3.71875
1695748036668,0.022949219,-0.9692993,0.109313965,6.53125,2.21875,2.53125
1695748036712,0.05126953,-0.9624634,0.07269287,3.515625,4.703125,0.703125
1695748036742,0.012939453,-0.95318604,0.08050537,1.59375,9.109375,-2.828125
1695748036788,0.068115234,-1.0244751,0.097351074,-0.84375,8.4375,-3.5625
1695748036833,-0.07080078,-1.0984497,-0.03765869,-2.96875,8.1875,-4.421875
1695748036862,0.4104004,-1.0845337,-0.15826416,8.015625,7.390625,5.796875
1695748036908,0.00390625,-0.8633423,0.085876465,-1.15625,2.359375,4.90625
1695748036968,-0.17407227,-1.0130005,-0.024475098,5.203125,12.671875,-2.859375
1695748036982,0.2590332,-0.8587036,-0.12261963,8.546875,12.828125,4.125
1695748037028,0.08520508,-0.9470825,-0.08868408,1.65625,5.40625,1.921875
1695748037073,0.01586914,-0.99346924,-0.09893799,5.140625,7.0625,2.75
1695748037104,0.09643555,-0.9624634,-0.061584473,5.578125,4.0625,3.046875
1695748037148,0.057617188,-0.972229,-0.08502197,6.671875,4.84375,4.53125
1695748037193,0.059326172,-0.987854,-0.093322754,7.921875,4.4375,5.25
1695748037222,0.049560547,-0.9475708,-0.08282471,9.390625,3.28125,6.59375
1695748037269,0.084472656,-0.9458618,-0.078430176,10.0,0.71875,8.984375
1695748037313,0.11254883,-0.9741821,-0.06060791,5.40625,-4.734375,10.09375
1695748037358,0.12426758,-0.9727173,-0.046447754,3.265625,-11.234375,9.609375
1695748037404,0.091796875,-0.95684814,-0.1182251,-4.234375,-13.609375,7.125
1695748037417,0.1743164,-0.9727173,-0.06695557,-3.59375,-7.359375,6.375
1695748037462,0.07421875,-0.9241333,0.024353027,5.234375,1.578125,-0.46875
1695748037508,0.25317383,-1.0176392,-0.13165283,-7.765625,9.703125,-7.4375
1695748037538,0.27294922,-0.9470825,-0.089904785,-0.484375,-1.03125,-1.6875
1695748037583,0.18652344,-1.0852661,-0.086242676,1.171875,0.921875,-4.46875
1695748037630,0.3010254,-0.9985962,-0.04107666,1.171875,1.96875,-2.46875
1695748037673,0.15258789,-0.98638916,-0.027893066,-0.625,-1.515625,-1.859375
1695748037719,0.17651367,-1.0361938,-0.05279541,4.234375,1.03125,-2.8125
1695748037747,0.22802734,-0.92803955,-0.06060791,6.296875,0.34375,-2.421875
1695748037795,0.18701172,-0.9348755,-0.029846191,3.40625,-1.71875,-1.6875
1695748037823,0.14892578,-0.9763794,-0.011047363,1.9375,-1.109375,-2.703125
1695748037867,0.14501953,-0.9500122,-0.028625488,1.171875,0.296875,-4.109375
1695748037898,0.07836914,-0.97198486,0.005554199,-0.84375,3.5,-6.203125
1695748037943,0.076171875,-0.98223877,-0.0022583008,-1.78125,6.3125,-7.75
1695748037987,0.1303711,-1.0269165,-0.02911377,-4.71875,7.765625,-7.890625
1695748038018,0.3659668,-1.0066528,-0.24151611,3.015625,-2.796875,1.515625
1695748038062,0.08129883,-0.8928833,0.019958496,-9.96875,-1.046875,4.25
1695748038108,-0.19848633,-1.0083618,-0.14898682,-3.828125,5.296875,-12.703125
1695748038138,0.3173828,-0.8657837,-0.16925049,4.03125,6.734375,-1.8125
1695748038184,0.067871094,-1.0078735,-0.038635254,-10.140625,-0.0625,-2.515625
1695748038212,-0.07788086,-1.0737915,-0.1296997,-2.71875,6.515625,-7.09375
1695748038258,0.15307617,-0.9812622,-0.13775635,3.328125,8.34375,-4.9375
1695748038303,0.060058594,-1.00177,-0.10040283,1.625,5.234375,-1.03125
1695748038333,0.009033203,-0.9639282,-0.08135986,0.765625,6.84375,-1.359375
1695748038378,0.07128906,-0.93756104,-0.105285645,1.3125,6.3125,1.53125
1695748038423,0.07104492,-0.9612427,-0.089416504,-0.09375,3.34375,1.90625
1695748038455,0.04663086,-0.9680786,-0.053527832,-1.78125,1.109375,2.03125
1695748038514,0.071777344,-0.97320557,-0.042541504,-2.65625,-1.703125,0.953125
1695748038543,0.029785156,-0.9717407,-0.045959473,-5.84375,-4.03125,-1.25
1695748038573,0.072265625,-1.0386353,-0.06060791,-11.03125,-5.65625,-3.078125
1695748038633,-0.012207031,-1.0874634,-0.01373291,-8.984375,0.6875,-5.984375
1695748038694,0.107421875,-1.0444946,-0.07305908,2.78125,4.578125,-7.34375
1695748038698,0.23657227,-0.97247314,-0.08428955,-3.75,2.015625,-6.203125
1695748038738,0.11352539,-0.8562622,-0.027160645,-3.53125,-6.46875,0.25
1695748038783,0.07788086,-0.9221802,-0.018127441,-1.390625,-4.421875,0.96875
1695748038813,0.115478516,-0.88116455,0.02557373,-3.375,1.046875,-0.84375
1695748038861,0.08642578,-0.98028564,0.042175293,-2.328125,-1.890625,-1.453125
1695748038888,0.11791992,-1.0513306,0.034118652,-2.25,0.84375,-0.84375
1695748038940,0.18041992,-1.003479,-0.025939941,1.28125,-1.546875,0.90625
1695748038980,0.10571289,-0.99786377,0.049987793,2.078125,-4.609375,2.65625
1695748039008,0.061279297,-0.98760986,0.055603027,3.890625,-2.359375,1.96875
1695748039053,0.09741211,-0.95977783,0.06097412,3.75,-0.5625,1.84375
1695748039098,0.02319336,-0.942688,0.06365967,2.0,1.625,-1.3125
1695748039136,0.0126953125,-0.94976807,0.06976318,1.265625,5.90625,-5.453125
1695748039173,0.11791992,-0.96099854,0.015075684,-0.875,6.75,-6.453125
1695748039218,0.035888672,-1.00177,0.028503418,-7.5,8.5625,-2.828125
1695748039247,0.25512695,-1.171936,-0.15533447,-1.140625,0.078125,-0.625
1695748039293,0.08935547,-0.84942627,0.015808105,2.5,0.5,5.53125
1695748039338,-0.0925293,-1.0413208,-0.0076293945,-6.046875,6.265625,-6.078125
1695748039367,0.23120117,-0.93951416,-0.06329346,4.234375,4.59375,1.390625
1695748039412,0.039794922,-0.91412354,-0.07550049,-4.734375,-0.828125,-1.484375
1695748039457,-0.029296875,-1.0349731,-0.074035645,-0.59375,3.4375,-1.921875
1695748039487,0.059326172,-0.9920044,-0.04156494,1.15625,4.546875,-1.703125
1695748039533,0.015380859,-1.0220337,-0.028381348,-0.203125,3.65625,-0.8125
1695748039578,0.008300781,-0.99664307,-0.04034424,0.578125,5.171875,-1.515625
1695748039607,0.017822266,-0.958313,-0.010803223,2.046875,3.953125,0.625
1695748039652,0.022216797,-0.95562744,-0.04547119,1.046875,2.53125,1.5625
1695748039682,0.059814453,-0.97125244,-0.008850098,-2.140625,-0.265625,3.125
1695748039731,0.033935547,-1.0115356,0.019958496,-5.859375,-6.40625,2.703125
1695748039772,-9.765625E-4,-0.9834595,0.022399902,-8.4375,-4.78125,-0.8125
1695748039803,0.06542969,-1.0471802,-0.039611816,-8.1875,-13.046875,-2.6875
1695748039848,-0.080078125,-0.98272705,0.010925293,4.203125,0.796875,-6.296875
1695748039893,0.26391602,-0.98028564,0.0033569336,4.140625,6.78125,-3.40625
1695748039922,0.16455078,-0.9871216,0.0138549805,-7.984375,-2.640625,-3.53125
1695748039968,0.02709961,-0.9138794,0.018249512,-1.953125,-3.578125,-0.3125
1695748040012,0.10205078,-1.0601196,0.046569824,0.265625,-0.46875,-2.84375
1695748040042,0.14941406,-0.9277954,0.0836792,-2.484375,-0.203125,-1.359375
1695748040087,0.07006836,-1.0291138,0.07269287,-3.6875,-4.515625,0.5625
1695748040148,0.10571289,-1.0151978,0.06951904,1.328125,-0.71875,-0.109375
1695748040163,0.08325195,-0.94122314,0.054626465,2.0,0.625,1.234375
1695748040207,0.11987305,-0.9561157,0.07659912,-0.078125,-0.6875,2.53125
1695748040253,0.084472656,-0.96832275,0.113464355,-0.515625,0.21875,2.609375
1695748040283,0.04296875,-0.9348755,0.101989746,0.359375,1.34375,1.59375
1695748040328,0.04321289,-0.928772,0.101745605,-1.46875,4.484375,-0.875
1695748040373,0.0126953125,-0.9277954,0.11981201,-0.828125,6.671875,-4.6875
1695748040403,0.07519531,-0.97540283,0.057556152,-0.953125,8.59375,-6.921875
1695748040449,0.0925293,-1.0222778,0.11273193,-4.59375,10.328125,-3.28125
1695748040477,0.18383789,-1.2002563,-0.03765869,-1.484375,-1.0625,-0.25
1695748040523,0.01928711,-0.895813,0.07318115,5.703125,6.234375,1.890625
1695748040584,-0.040771484,-0.9768677,-0.008361816,2.328125,11.375,-4.3125
1695748040597,0.24267578,-0.89727783,-0.042053223,5.234375,7.015625,1.46875
1695748040643,0.041503906,-0.9163208,-0.0017700195,-3.015625,2.390625,0.5625
1695748040688,-0.03173828,-1.024231,-0.03277588,-0.359375,3.515625,-2.03125
1695748040717,0.040283203,-1.0144653,-0.01373291,4.046875,4.90625,-3.125
1695748040766,0.022705078,-1.0789185,0.011413574,3.46875,4.703125,-2.375
1695748040808,0.020751953,-1.0161743,-0.009094238,3.15625,4.671875,-1.46875
1695748040837,0.0068359375,-0.98028564,-0.0049438477,1.875,5.546875,0.90625
1695748040898,0.007080078,-0.96881104,0.0060424805,2.03125,3.84375,2.484375
1695748040928,0.03125,-0.95806885,0.009216309,1.75,1.65625,3.859375
1695748040959,0.052001953,-0.98443604,0.026306152,0.0,-2.171875,4.671875
1695748041003,0.032226562,-1.0078735,0.058288574,-5.0625,-6.4375,2.390625
1695748041048,-0.07519531,-0.98687744,0.055358887,-6.484375,-5.984375,-0.9375
1695748041077,-0.0068359375,-1.0178833,-0.051818848,-6.609375,-5.703125,-5.875
1695748041123,0.07714844,-1.045227,0.057556152,3.921875,1.21875,-6.40625
1695748041168,0.14990234,-0.9319458,-0.009094238,2.3125,-0.046875,-4.109375
1695748041197,0.17236328,-0.9282837,-0.004211426,-1.0,-2.71875,-1.90625
1695748041243,0.07128906,-0.97247314,0.004333496,1.9375,-3.796875,0.484375
1695748041273,0.119628906,-0.9776001,0.05609131,3.09375,1.578125,-0.578125
1695748041333,0.099365234,-0.9290161,0.06512451,-1.234375,0.578125,-0.90625
1695748041363,0.06591797,-1.0176392,0.09686279,-0.9375,0.171875,-1.21875
1695748041423,0.08105469,-1.0593872,0.05316162,3.28125,2.1875,-1.390625
1695748041500,0.14111328,-0.9734497,0.028503418,3.875,1.390625,0.78125
1695748041504,0.067871094,-0.9824829,0.06951904,2.65625,-0.5625,2.890625
1695748041512,0.045898438,-1.0005493,0.11004639,4.078125,1.875,1.671875
1695748041573,0.024169922,-0.9248657,0.08758545,4.78125,5.203125,-0.1875
1695748041619,0.0063476562,-0.94073486,0.07196045,1.5,7.09375,-2.8125
1695748041633,0.043701172,-1.0076294,0.062438965,-2.203125,10.25,-6.8125
1695748041678,0.022949219,-1.0020142,0.12835693,-3.984375,13.15625,-7.21875
1695748041723,0.011230469,-1.1309204,-0.09307861,-2.0625,7.203125,-6.140625
1695748041751,0.3564453,-0.8909302,-0.11651611,8.59375,4.265625,7.9375
1695748041800,-0.12841797,-0.94000244,0.027526855,-10.78125,2.734375,-0.359375
1695748041827,-0.007080078,-1.0391235,-0.027893066,3.6875,9.125,-2.671875
1695748041874,0.1965332,-0.9248657,-0.07476807,0.703125,4.671875,0.1875
1695748041918,-0.008544922,-0.9990845,-0.07354736,-5.046875,1.5625,-0.9375
1695748041947,-0.028564453,-1.0437622,-0.03277588,0.8125,3.25,-1.609375
1695748041993,0.08642578,-1.0037231,-0.028137207,2.140625,2.671875,0.421875
1695748042039,-0.037597656,-0.9805298,-0.014221191,1.515625,2.875,0.71875
1695748042068,0.019042969,-0.96954346,-0.032043457,2.125,2.578125,1.296875
1695748042113,-0.010009766,-0.96710205,-0.003479004,2.0625,0.203125,2.1875
1695748042188,0.024902344,-0.9463501,-0.0049438477,0.0,-1.328125,3.4375
1695748042208,0.038330078,-0.9819946,0.009216309,-3.5,-6.453125,4.84375
1695748042234,0.04272461,-1.0012817,0.043395996,-3.5,-11.046875,4.28125
1695748042278,-0.044189453,-1.003479,0.061950684,-7.703125,-9.03125,0.578125
1695748042309,0.0043945312,-1.0447388,-0.023254395,-7.640625,-10.8125,-2.984375
1695748042353,0.03540039,-0.99786377,0.019470215,3.703125,-0.765625,-6.109375
1695748042399,0.11743164,-0.97369385,-0.021057129,6.171875,1.421875,-3.3125
1695748042427,0.18261719,-0.9697876,-0.012756348,-2.265625,-3.984375,-1.59375
1695748042473,0.06518555,-0.9273071,0.012878418,-2.5,-6.390625,1.703125
1695748042519,0.10913086,-0.9841919,0.04534912,0.765625,-3.65625,-0.21875
1695748042548,0.14038086,-0.9456177,0.074157715,-2.96875,-2.75,-1.09375
1695748042593,0.05029297,-1.0049438,0.08001709,-1.140625,-4.53125,-1.609375
1695748042621,0.059326172,-1.0198364,0.0602417,-0.046875,0.5,-2.5
1695748042669,0.12963867,-0.98101807,0.03656006,3.4375,-0.1875,0.171875
1695748042718,0.06323242,-0.97369385,0.0770874,1.8125,-0.734375,2.328125
1695748042789,0.048583984,-0.9697876,0.093688965,1.859375,1.078125,1.6875
1695748042794,0.03564453,-0.9463501,0.0927124,3.578125,2.703125,0.6875
1695748042833,0.0068359375,-0.93829346,0.09686279,0.96875,5.015625,-2.015625
1695748042863,0.017578125,-0.99224854,0.0914917,-2.59375,7.40625,-4.6875
1695748042909,0.110839844,-1.0083618,0.058532715,-2.28125,5.328125,-5.578125
1695748042953,0.0036621094,-0.9927368,0.19232178,-6.671875,10.796875,-3.296875
1695748042982,-0.012939453,-1.1829224,-0.0044555664,-2.828125,5.65625,-8.765625
1695748043029,0.34814453,-0.87091064,-0.07208252,7.15625,3.4375,5.34375
1695748043073,-0.075927734,-0.96881104,0.116882324,-13.46875,6.921875,-0.0625
1695748043104,-0.018066406,-1.008606,-0.026672363,1.1875,12.53125,-3.15625
1695748043148,0.24975586,-0.8711548,-0.06866455,0.40625,6.125,-0.6875
1695748043223,-0.0029296875,-1.0147095,0.03363037,-4.28125,-0.28125,1.015625
1695748043236,-0.0925293,-1.0598755,-0.0010375977,1.0,4.125,-2.921875
1695748043270,0.055908203,-0.9932251,-0.009094238,5.109375,7.375,-3.359375
1695748043298,0.0034179688,-0.99542236,0.016296387,8.0625,5.34375,-0.703125
1695748043343,-0.011474609,-0.9614868,-0.0012817383,3.9375,5.5625,0.984375
1695748043389,-0.011230469,-0.96466064,0.009216309,1.109375,3.359375,2.6875
1695748043417,0.0034179688,-0.97784424,0.03338623,3.34375,1.84375,3.453125
1695748043463,0.0056152344,-0.9968872,0.039489746,0.8125,1.421875,2.953125
1695748043508,-0.017333984,-0.9883423,0.04852295,-1.828125,-0.515625,0.109375
1695748043538,-0.013183594,-0.9866333,0.027282715,-5.953125,-3.296875,-1.890625
1695748043584,2.4414062E-4,-1.0337524,0.029724121,-8.484375,-0.3125,-5.5
1695748043630,0.02734375,-1.0466919,0.02947998,-4.453125,0.625,-7.046875
1695748043657,0.115234375,-0.9192505,0.031921387,6.515625,1.328125,-4.5
1695748043704,0.17529297,-0.9795532,-0.008605957,-3.84375,-0.828125,-2.71875
1695748043748,0.08935547,-0.9534302,0.04901123,-3.96875,-6.359375,-0.15625
1695748043777,-0.019042969,-0.9961548,0.082214355,-0.546875,-2.234375,-2.59375
1695748043825,0.096191406,-0.99298096,0.07269287,-0.15625,2.65625,-4.125
1695748043868,0.08154297,-1.0100708,0.078063965,-1.421875,-1.296875,-1.46875
1695748043898,0.035888672,-1.0396118,0.07904053,0.84375,-0.6875,-0.546875
1695748043944,0.064697266,-0.96099854,0.061950684,2.765625,0.625,0.28125
1695748043989,0.036132812,-0.9751587,0.101989746,1.96875,-0.609375,1.234375
1695748044018,-0.0056152344,-0.97662354,0.12005615,3.828125,1.109375,1.640625
1695748044063,0.026367188,-0.9209595,0.117370605,2.953125,3.578125,-0.34375
1695748044123,-0.020263672,-0.9380493,0.11004639,1.375,4.734375,-1.421875
1695748044168,-0.0024414062,-0.95025635,0.07220459,-1.4375,7.078125,-4.296875
1695748044183,0.12451172,-1.0095825,0.08514404,-0.734375,3.21875,-1.828125
1695748044214,-0.11645508,-1.0442505,0.17254639,-9.453125,8.53125,-2.5625
1695748044259,0.15478516,-1.1494751,-0.09918213,3.125,4.453125,-3.671875
1695748044303,0.20043945,-0.80914307,-0.0049438477,5.71875,2.21875,8.96875
1695748044332,-0.1340332,-1.0437622,0.04925537,-9.453125,5.625,-0.625
1695748044378,0.099853516,-0.9541626,-0.039611816,3.59375,7.0,0.703125
1695748044423,0.11743164,-0.94415283,-0.011291504,-3.53125,-1.328125,1.265625
1695748044452,-0.091796875,-1.0679321,0.024597168,-2.0,-1.640625,0.09375
1695748044500,-0.052001953,-1.0071411,0.014099121,3.015625,6.109375,-2.953125
1695748044543,0.029296875,-0.9981079,0.009460449,4.484375,4.578125,-0.625
1695748044577,-0.013671875,-0.9771118,0.018249512,3.59375,2.3125,0.921875
1695748044618,-0.014160156,-0.9619751,0.02166748,2.25,-0.171875,3.171875
1695748044694,0.008056641,-0.95977783,0.039978027,0.8125,-1.828125,5.21875
1695748044698,-0.0012207031,-0.975647,0.061462402,-1.40625,-4.859375,6.171875
1695748044738,-0.033691406,-1.0120239,0.0692749,-2.375,-4.75,3.8125
1695748044769,0.018798828,-1.0032349,0.025817871,-1.265625,-5.4375,0.78125
1695748044814,-0.016357422,-1.0083618,0.05291748,-3.59375,-4.078125,-2.71875
1695748044857,0.033447266,-0.9993286,-0.0154418945,-2.53125,-9.078125,-4.828125
1695748044887,-0.006591797,-0.9356079,0.08758545,5.390625,4.671875,-5.703125
1695748044933,0.17919922,-1.0337524,-0.035949707,0.0,1.984375,-5.890625
1695748044977,0.11767578,-0.9692993,0.008972168,0.203125,-3.6875,-1.40625
1695748045008,0.04272461,-0.97052,0.051940918,-0.390625,-4.78125,-0.46875
1695748045053,0.038085938,-1.0244751,0.08734131,-0.234375,0.265625,-3.984375
1695748045098,0.08691406,-0.9702759,0.08880615,-1.015625,1.453125,-2.109375
1695748045145,0.010986328,-1.0244751,0.086120605,-0.265625,1.25,-2.078125
1695748045175,0.07885742,-1.0137329,0.049987793,1.515625,2.03125,-1.78125
1695748045223,0.11206055,-0.9758911,0.07147217,1.34375,1.828125,1.640625
1695748045263,0.03149414,-0.987854,0.10662842,0.390625,-0.09375,1.703125
1695748045292,0.033691406,-0.9680786,0.09539795,1.828125,1.4375,1.328125
1695748045338,0.01586914,-0.94073486,0.09442139,2.75,3.90625,0.171875
1695748045367,0.0041503906,-0.9414673,0.09490967,1.3125,4.96875,-1.5625
1695748045412,0.024414062,-0.9656372,0.08465576,-1.640625,6.140625,-3.84375
1695748045458,0.1394043,-0.9885864,0.093933105,-2.0625,1.546875,-1.421875
1695748045488,-0.16699219,-1.0581665,0.18719482,-12.234375,7.625,-4.328125
1695748045533,0.13549805,-1.1309204,-0.032287598,1.5,2.609375,-4.59375
1695748045563,0.21972656,-0.8831177,0.04046631,-0.375,0.546875,6.5625
1695748045607,-0.18310547,-1.0674438,0.11248779,-7.921875,4.84375,-1.359375
1695748045652,0.030517578,-0.85479736,-0.08477783,6.03125,13.453125,-2.671875
1695748045682,0.23535156,-0.9102173,-0.038635254,-4.53125,2.796875,2.8125
1695748045729,-0.07299805,-1.1052856,0.049743652,-5.1875,-0.75,2.25
1695748045773,-0.028320312,-1.0083618,0.0033569336,1.453125,4.671875,-1.609375
1695748045801,0.036621094,-1.0154419,0.059020996,2.796875,3.953125,-1.578125
1695748045849,-0.043701172,-1.000061,0.034851074,2.421875,4.59375,-1.75
1695748045893,0.0041503906,-0.9546509,0.016540527,3.78125,4.3125,0.640625
1695748045922,0.00390625,-0.9558716,0.04071045,1.375,1.6875,1.484375
1695748045968,-0.0034179688,-0.96417236,0.051696777,0.109375,0.46875,3.09375
1695748046013,-0.028808594,-0.9673462,0.04486084,0.5625,-1.8125,1.96875
1695748046059,-0.024169922,-0.9668579,0.038757324,-1.234375,-3.609375,0.234375
1695748046087,-0.064697266,-1.00177,0.054138184,-3.765625,-1.1875,-2.984375
1695748046133,0.033203125,-1.0601196,0.0289917,-7.09375,-7.234375,-4.828125
1695748046162,-0.008300781,-1.0557251,0.08514404,-2.359375,-5.375,-6.828125
1695748046208,0.095703125,-0.9429321,0.002380371,5.546875,-0.734375,-3.984375
1695748046238,0.21044922,-0.94073486,0.024353027,1.609375,-4.34375,-2.125
1695748046282,-0.010986328,-0.8633423,0.117370605,-3.203125,-7.984375,-0.65625
1695748046328,-0.09375,-1.0325317,0.07513428,-1.703125,-0.6875,-4.234375
1695748046357,0.13964844,-1.0061646,0.086364746,-0.625,4.5625,-5.53125
1695748046403,0.05102539,-1.0535278,0.089782715,-2.984375,-0.953125,-1.640625
1695748046448,0.057861328,-1.0171509,0.09197998,-2.59375,-1.125,0.640625
1695748046493,0.037597656,-0.9963989,0.109802246,1.328125,-2.984375,2.078125
1695748046538,0.010009766,-0.972229,0.12249756,3.46875,-0.921875,2.03125
1695748046569,0.010253906,-0.97003174,0.12713623,4.484375,0.046875,1.90625
1695748046598,2.4414062E-4,-0.9578247,0.13470459,2.546875,0.453125,1.09375
1695748046643,-0.022705078,-0.95513916,0.11517334,2.578125,2.109375,-1.265625
1695748046689,-4.8828125E-4,-0.97735596,0.13397217,2.0625,2.984375,-3.765625
1695748046733,0.0029296875,-0.98101807,0.10809326,-1.09375,2.78125,-4.15625
1695748046763,-0.057617188,-1.0059204,0.19256592,-6.546875,6.375,-4.34375
1695748046808,-0.1394043,-1.1531372,0.11248779,-7.265625,5.890625,-9.9375
1695748046837,0.32666016,-0.95318604,-0.05230713,5.4375,1.921875,3.140625
1695748046883,-0.018554688,-0.99884033,0.16741943,-10.359375,2.6875,4.203125
1695748046928,-0.17163086,-1.0344849,0.06341553,-0.296875,11.296875,-2.796875
1695748046957,0.18798828,-0.78302,-0.04888916,7.828125,9.890625,-1.015625
1695748047002,0.063964844,-0.98687744,0.03778076,-7.25,-0.15625,5.28125
1695748047049,-0.11767578,-1.0530396,0.007507324,-3.8125,1.78125,0.6875
1695748047077,0.010986328,-1.0046997,0.014343262,4.078125,3.96875,0.515625
1695748047139,-0.0029296875,-1.0115356,0.101745605,4.8125,5.609375,-0.4375
1695748047153,-0.06542969,-0.99053955,0.031677246,2.484375,5.1875,-0.640625
1695748047197,9.765625E-4,-0.98028564,0.035095215,2.5625,3.90625,0.0625
1695748047242,-0.018554688,-0.973938,0.062438965,3.6875,2.453125,1.921875
1695748047274,0.0068359375,-0.9614868,0.074157715,-0.671875,-0.1875,3.203125
1695748047318,-0.03173828,-0.987854,0.09588623,-2.84375,-2.59375,2.0
1695748047363,-0.056152344,-0.987854,0.074157715,-2.09375,-2.296875,-0.078125
1695748047393,-0.04248047,-0.99224854,0.066101074,-2.28125,0.015625,-2.796875
1695748047453,-0.010498047,-1.034729,0.05682373,-5.015625,-6.28125,-5.21875
1695748047484,-0.09033203,-1.0090942,0.101257324,-0.078125,-1.578125,-7.4375
1695748047513,0.0769043,-0.9898071,0.009460449,3.984375,2.125,-4.625
1695748047560,0.20483398,-0.99835205,0.019714355,-1.71875,-4.84375,-3.875
1695748047603,-0.0043945312,-0.9380493,0.10687256,-2.546875,-7.359375,-1.3125
1695748047632,-0.07080078,-0.9380493,0.077819824,0.265625,-2.046875,-4.5
1695748047678,0.060058594,-0.9624634,0.120788574,-2.359375,4.03125,-6.78125
1695748047707,-0.024414062,-1.0256958,0.11224365,-2.578125,2.46875,-5.78125
1695748047754,0.015136719,-1.0332642,0.086364746,-0.796875,4.046875,-3.796875
1695748047829,0.080078125,-1.000061,0.11395264,1.515625,-0.171875,-0.78125
1695748047833,0.0078125,-0.97540283,0.13397217,-1.8125,-0.78125,1.6875
1695748047875,-0.03955078,-0.9859009,0.15594482,1.328125,-0.78125,2.546875
1695748047935,-0.010986328,-0.9487915,0.13153076,2.828125,2.015625,1.09375
1695748047948,-0.052734375,-0.9138794,0.13201904,6.28125,5.125,1.0625
1695748047994,-0.009033203,-0.96954346,0.10809326,2.640625,4.859375,-0.40625
1695748048038,0.060546875,-0.9685669,0.13616943,-1.609375,3.375,-0.890625
1695748048068,-0.14501953,-1.0337524,0.22796631,-7.125,6.234375,-3.6875
1695748048113,-0.0859375,-1.1231079,0.054138184,2.484375,6.171875,-6.640625
1695748048174,0.27490234,-0.90875244,-0.006164551,3.15625,3.421875,4.75
1695748048187,-0.1015625,-0.9854126,0.124938965,-6.15625,3.734375,5.0625
1695748048234,-0.16357422,-0.9668579,-0.008605957,6.703125,14.6875,-1.765625
1695748048278,0.19482422,-0.88287354,-0.06036377,1.703125,8.921875,1.890625
1695748048309,0.04296875,-1.0703735,0.07122803,-6.90625,-1.140625,4.734375
1695748048353,-0.17529297,-1.0598755,0.05999756,0.890625,1.921875,-0.09375
1695748048397,-0.016845703,-0.99176025,0.04486084,7.984375,8.6875,-3.140625
1695748048427,-0.029296875,-1.022522,0.05316162,6.359375,7.109375,-0.96875
1695748048475,-0.053955078,-0.9678345,0.019470215,5.59375,6.234375,-0.328125
1695748048503,-0.025390625,-0.9619751,0.030456543,3.359375,3.375,2.671875
1695748048548,-0.037841797,-0.9849243,0.074401855,2.40625,1.453125,3.578125
1695748048593,-0.036865234,-0.9932251,0.051696777,-0.703125,-0.328125,2.859375
1695748048624,-0.061523438,-1.0183716,0.07928467,-0.484375,-1.390625,2.265625
1695748048669,-0.06347656,-1.006897,0.07977295,-4.078125,-1.0,-1.234375
1695748048713,-0.09326172,-0.9837036,0.070007324,-2.046875,-1.015625,-2.984375
1695748048758,-0.012451172,-0.9788208,0.04437256,-2.59375,-5.390625,-4.234375
1695748048805,-0.042236328,-0.9776001,0.05633545,-1.6875,-6.71875,-4.78125
1695748048832,0.030273438,-0.9788208,0.0048217773,2.734375,-5.171875,-2.9375
1695748048863,0.14086914,-0.95147705,0.026550293,2.796875,-5.96875,-1.59375
1695748048909,0.0546875,-0.9492798,0.044128418,0.984375,-8.671875,-0.203125
1695748048969,-0.030517578,-0.93414307,0.05340576,2.65625,-4.265625,-0.21875
1695748048983,0.008300781,-1.013977,0.10662842,-2.578125,-0.71875,-3.734375
1695748049028,0.045898438,-1.0933228,0.09320068,-4.671875,-0.59375,-2.421875
1695748049104,0.03881836,-1.0664673,0.09466553,-1.8125,-1.03125,-1.1875
1695748049109,0.026855469,-1.000061,0.10101318,0.078125,-0.9375,0.515625
1695748049148,0.0107421875,-0.9663696,0.1149292,0.09375,-0.953125,1.484375
1695748049178,7.324219E-4,-0.9663696,0.12249756,0.90625,-0.546875,2.40625
1695748049239,-0.015380859,-0.9302368,0.11834717,1.796875,1.296875,1.78125
1695748049268,-0.012939453,-0.91290283,0.097839355,1.625,2.765625,0.6875
1695748049314,0.007080078,-0.9507446,0.10369873,0.078125,2.984375,-1.25
1695748049343,0.041259766,-0.9819946,0.13446045,-2.296875,2.609375,-2.09375
1695748049389,-0.23510742,-1.0662231,0.20526123,-12.984375,9.609375,-7.953125
1695748049418,0.13989258,-1.1028442,-0.085510254,6.203125,7.140625,-6.109375
1695748049463,0.19580078,-0.89190674,0.043151855,2.625,4.125,5.546875
1695748049510,-0.1640625,-1.1035767,0.11907959,-6.6875,4.75,-0.8125
1695748049537,-0.0078125,-0.8960571,0.0072631836,6.5,12.015625,-1.703125
1695748049583,0.09082031,-0.9248657,-0.008361816,0.578125,5.859375,0.515625
1695748049628,-0.07104492,-1.0188599,0.017028809,-0.734375,7.796875,-0.1875
1695748049659,-0.032714844,-0.97320557,0.0018920898,0.40625,9.609375,-2.015625
1695748049703,0.0021972656,-1.0371704,0.051208496,1.71875,4.125,-0.03125
1695748049747,-0.107421875,-1.0090942,0.09051514,2.046875,9.515625,-2.53125
1695748049778,-0.056884766,-0.99713135,0.0211792,1.53125,10.3125,-2.03125
1695748049824,-0.025634766,-0.9746704,0.035583496,2.609375,8.046875,0.0625
1695748049901,-0.026367188,-0.9639282,0.04095459,0.75,5.6875,2.125
1695748049907,0.0,-0.96710205,0.061462402,1.140625,1.09375,4.6875
1695748049943,-0.038085938,-0.9829712,0.08831787,-0.65625,-1.859375,4.3125
1695748049973,-0.076171875,-0.9944458,0.082458496,-2.140625,1.1875,2.3125
1695748050018,0.005126953,-1.015686,0.082214355,-3.015625,-3.484375,0.78125
1695748050078,-0.07910156,-1.0569458,0.07562256,-7.9375,-6.015625,-2.890625
1695748050094,-0.1027832,-0.9439087,0.04119873,5.09375,0.265625,-3.828125
1695748050168,0.2019043,-0.9585571,-0.04840088,7.453125,2.171875,-2.75
1695748050186,0.17675781,-0.8772583,0.043884277,2.125,-11.0625,1.515625
1695748050213,-0.022460938,-0.90997314,0.07952881,1.4375,-12.359375,6.15625
1695748050266,0.01953125,-0.94317627,0.042907715,4.21875,-3.75,2.0625
1695748050302,0.0637207,-1.0459595,0.08831787,-0.34375,-1.9375,0.6875
1695748050332,-0.021240234,-1.1321411,0.12249756,0.625,-3.90625,0.203125
1695748050378,0.076171875,-1.0962524,0.09906006,1.453125,-3.71875,0.84375
1695748050423,0.03173828,-1.0078735,0.12225342,-0.09375,-5.640625,0.671875
1695748050453,-0.05029297,-1.0115356,0.12445068,4.0625,-2.78125,-0.578125
1695748050498,0.0017089844,-0.97247314,0.12640381,5.28125,0.53125,-1.84375
1695748050544,-0.02368164,-0.9336548,0.11810303,1.578125,2.171875,-3.796875
1695748050572,-0.008300781,-0.94366455,0.10321045,0.140625,3.875,-5.171875
1695748050618,0.018066406,-0.96710205,0.11541748,-2.09375,4.25,-5.5
1695748050647,-0.071777344,-0.989563,0.1317749,-6.078125,6.109375,-5.390625
1695748050693,-0.06225586,-1.1008911,-0.027404785,-1.640625,8.328125,-7.578125
1695748050739,0.14233398,-0.8804321,-0.105285645,6.15625,7.765625,2.25
1695748050767,-0.025634766,-0.94732666,0.062927246,-8.140625,7.578125,-1.53125
1695748050829,-0.01171875,-1.0549927,0.03363037,-2.8125,7.890625,0.765625
1695748050857,0.033691406,-0.94122314,0.008239746,-2.90625,6.796875,-1.03125
1695748050888,-0.07299805,-1.0081177,0.007507324,-1.390625,5.328125,-1.3125
1695748050933,-0.09008789,-1.0335083,0.023620605,1.453125,6.6875,-2.859375
1695748050979,-0.033447266,-1.0359497,0.06390381,2.953125,5.234375,-1.015625
1695748051008,-0.10595703,-0.9812622,0.054626465,3.078125,7.515625,-0.921875
1695748051054,-0.11279297,-0.96881104,0.015808105,3.265625,9.84375,-1.15625
1695748051099,-0.057373047,-0.9649048,0.026794434,3.125,8.8125,0.671875
1695748051142,-0.051757812,-0.96343994,0.04168701,-0.984375,5.0,2.484375
1695748051172,-0.025878906,-1.0015259,0.04852295,-1.28125,1.875,4.578125
1695748051234,-0.02368164,-1.0071411,0.06365967,-1.890625,-1.84375,3.953125
1695748051249,-0.07006836,-1.0134888,0.10662842,-5.71875,-3.34375,0.609375
1695748051296,-0.13989258,-1.015686,0.105895996,-9.171875,-2.640625,-5.296875
1695748051339,-0.02319336,-1.0093384,-0.008361816,-7.0625,-8.171875,-7.265625
1695748051383,0.05493164,-0.97735596,0.06390381,3.140625,-2.390625,-6.59375
1695748051412,0.17089844,-0.96051025,0.04925537,-2.203125,-5.4375,-0.734375
1695748051443,4.8828125E-4,-0.9380493,0.059265137,-6.96875,-12.0625,-2.109375
1695748051489,-0.100097656,-0.944397,0.07269287,1.765625,-5.734375,-1.953125
1695748051533,0.017089844,-1.031311,0.10614014,-0.296875,-1.59375,-5.640625
1695748051562,0.03540039,-1.00177,0.13543701,-8.4375,-3.390625,-1.140625
1695748051608,-0.02734375,-1.0349731,0.14593506,-5.484375,-4.796875,0.796875
1695748051684,0.009033203,-1.0120239,0.113464355,2.21875,-2.5625,1.375
1695748051690,0.017333984,-0.95318604,0.11419678,3.3125,-2.859375,5.015625
1695748051728,-0.004638672,-0.9546509,0.15447998,1.296875,-4.421875,6.921875
1695748051773,-0.057373047,-0.9644165,0.1473999,3.53125,-3.140625,5.703125
1695748051803,0.001953125,-0.923645,0.14105225,6.328125,0.28125,4.453125
1695748051848,-0.02319336,-0.9260864,0.15545654,4.390625,1.984375,2.859375
1695748051894,-0.06518555,-0.9451294,0.15032959,2.359375,3.078125,-0.640625
1695748051922,0.03881836,-1.0122681,0.11468506,0.015625,2.0,-2.625
1695748051971,-0.103271484,-1.0530396,0.22943115,-6.859375,7.578125,-4.125
1695748052014,-0.091796875,-1.1824341,0.020690918,1.734375,8.734375,-8.984375
1695748052042,0.18969727,-0.8272095,-0.019348145,8.359375,11.015625,0.609375
1695748052088,-0.06298828,-1.010315,0.08123779,-7.65625,8.9375,-1.59375
1695748052119,0.018066406,-1.0012817,0.039489746,2.9375,11.15625,1.921875
1695748052163,0.051757812,-0.9282837,-0.0095825195,-1.5625,6.125,-0.046875
1695748052224,-0.0087890625,-0.99053955,6.713867E-4,0.53125,6.140625,1.34375
1695748052237,-0.038085938,-1.0132446,0.01361084,-0.109375,5.65625,-1.453125
1695748052283,-0.039794922,-1.0427856,0.06048584,1.421875,4.421875,-0.6875
1695748052329,-0.04663086,-1.0342407,0.08050537,3.171875,6.734375,-2.125
1695748052358,-0.045166016,-0.9898071,0.039489746,0.53125,8.28125,-2.140625
1695748052403,-0.041748047,-0.9829712,0.046325684,2.03125,6.046875,-0.34375
1695748052449,-0.032714844,-0.9517212,0.055847168,2.21875,3.1875,1.0
1695748052495,-0.020507812,-0.95098877,0.058776855,-0.359375,0.03125,3.296875
1695748052522,-0.067871094,-0.94244385,0.06585693,0.125,-2.25,3.71875
1695748052569,-0.10595703,-0.97906494,0.062438965,-2.046875,0.25,1.703125
1695748052597,-0.033691406,-1.0198364,0.062683105,-3.953125,1.28125,-0.828125
1695748052643,-0.029785156,-1.1011353,0.054382324,-6.953125,-5.3125,-4.140625
1695748052691,-0.061523438,-0.97247314,0.06976318,2.96875,-1.265625,-4.296875
1695748052718,0.13842773,-1.0064087,0.03778076,1.796875,1.1875,-2.828125
1695748052763,0.13134766,-0.9981079,0.08148193,-3.78125,-5.53125,-1.34375
1695748052808,-0.044189453,-0.9221802,0.07879639,1.375,-6.171875,0.578125
1695748052837,-0.021728516,-0.96661377,0.10614014,1.875,1.1875,-4.640625
1695748052884,0.05102539,-1.013977,0.1473999,-1.046875,3.296875,-4.390625
1695748052943,-0.0012207031,-1.0244751,0.11468506,-4.125,0.90625,-3.421875
1695748052957,0.026123047,-0.9990845,0.097839355,-3.578125,-0.671875,-1.390625
1695748053003,0.03149414,-0.9985962,0.14031982,0.90625,-1.6875,0.421875
1695748053033,-0.029052734,-0.9663696,0.1642456,0.40625,-1.15625,2.171875
1695748053078,-0.033935547,-0.94610596,0.14691162,2.796875,0.3125,2.53125
1695748053123,-0.030761719,-0.911438,0.14105225,4.328125,3.125,1.953125
1695748053153,-0.0390625,-0.93756104,0.13446045,6.296875,4.5625,2.125
1695748053199,0.014404297,-0.97198486,0.11419678,1.890625,3.859375,-0.984375
1695748053244,0.09838867,-1.0025024,0.15594482,-1.453125,0.828125,-0.328125
1695748053273,-0.23754883,-1.0562134,0.20111084,-6.921875,8.078125,-3.734375
1695748053318,0.030273438,-1.0628052,-0.027160645,7.984375,8.578125,-7.84375
1695748053380,0.1862793,-0.8255005,0.024353027,0.53125,6.46875,2.296875
1695748053392,-0.119628906,-1.0991821,0.105651855,-9.3125,4.0,-0.09375
1695748053440,-0.029052734,-0.98028564,-0.009094238,7.171875,10.65625,-1.984375
1695748053483,0.11279297,-0.8880005,-0.010803223,5.0625,7.28125,0.53125
1695748053513,-0.07885742,-1.0505981,0.04852295,-1.890625,4.609375,0.953125
1695748053559,-0.08227539,-1.006897,0.034851074,-0.890625,3.84375,-1.25
1695748053604,-0.025146484,-1.0230103,0.06707764,2.375,2.625,-0.5
1695748053632,-0.07836914,-1.02594,0.070739746,2.34375,5.703125,-1.796875
1695748053678,-0.06665039,-0.9768677,0.057800293,0.59375,5.109375,-1.828125
1695748053709,-0.06591797,-0.987854,0.061706543,1.359375,4.203125,-0.40625
1695748053755,-0.072265625,-0.95025635,0.061706543,0.09375,3.203125,0.59375
1695748053797,-0.06274414,-0.95269775,0.09075928,-2.328125,-0.09375,1.984375
1695748053828,-0.06518555,-0.9837036,0.089538574,-4.234375,-4.109375,2.890625
1695748053873,-0.110839844,-0.9937134,0.062683105,-6.890625,-4.375,0.90625
1695748053921,-0.033691406,-1.0230103,0.07952881,-7.828125,-2.453125,-4.609375
1695748053948,-0.012207031,-1.0996704,0.07635498,-6.640625,-5.03125,-4.15625
1695748053996,-0.040039062,-0.9351196,0.08392334,3.71875,-2.796875,-2.828125
1695748054038,0.19506836,-0.958313,0.009460449,5.34375,-3.328125,-1.5
1695748054067,0.05444336,-0.90093994,0.07757568,-2.453125,-8.59375,0.75
1695748054113,-0.0690918,-0.9907837,0.08099365,-0.609375,-4.65625,-1.28125
1695748054159,0.064453125,-0.9932251,0.09320068,1.359375,0.78125,-3.90625
1695748054187,0.060546875,-1.024231,0.14251709,-3.875,-0.9375,-1.53125
1695748054234,-0.041748047,-1.052063,0.12738037,-2.0,-2.8125,-0.828125
1695748054278,0.0,-1.0166626,0.1149292,3.53125,-0.5625,0.921875
1695748054308,0.009765625,-0.9692993,0.11834717,3.390625,-0.53125,2.265625
1695748054370,-0.026855469,-0.95977783,0.14276123,2.96875,-2.015625,3.28125
1695748054382,-0.04321289,-0.9614868,0.13861084,2.328125,-0.453125,1.875
1695748054428,-0.03955078,-0.92437744,0.14178467,4.640625,2.0625,0.34375
1695748054474,-0.06225586,-0.9475708,0.1239624,2.296875,3.109375,-2.53125
1695748054503,-0.0036621094,-1.005188,0.12860107,-2.296875,4.28125,-6.0
1695748054548,0.0026855469,-0.97491455,0.16595459,-1.640625,4.6875,-4.8125
1695748054594,-0.23608398,-1.0918579,0.09442139,-7.875,11.828125,-9.625
1695748054623,0.27246094,-0.87042236,-0.11529541,14.328125,5.53125,5.953125
1695748054669,0.048339844,-0.91070557,0.055358887,-11.765625,3.953125,7.265625
1695748054713,-0.12524414,-1.116272,0.08001709,-2.578125,6.40625,2.96875
1695748054742,0.061279297,-0.9170532,0.04144287,5.578125,2.84375,3.90625
1695748054788,0.026123047,-0.99005127,0.054138184,-3.4375,-5.40625,6.078125
1695748054833,-0.21118164,-1.0396118,0.08538818,0.609375,-1.125,-0.421875
1695748054862,-0.08496094,-1.0567017,0.0028686523,7.3125,4.8125,-0.546875
1695748054908,0.0017089844,-1.0256958,0.05218506,6.953125,7.78125,-0.015625
1695748054954,-0.087646484,-0.9951782,0.06341553,2.40625,6.859375,-0.359375
1695748054984,-0.04296875,-0.9690552,0.055358887,3.3125,7.953125,1.0625
1695748055043,-0.045898438,-0.9534302,0.03778076,1.921875,5.828125,2.21875
1695748055072,-0.0546875,-0.9661255,0.05706787,1.171875,3.484375,4.203125
1695748055102,-0.0546875,-0.97320557,0.07342529,-1.34375,1.03125,3.90625
1695748055150,-0.059814453,-1.0161743,0.08514404,0.21875,4.453125,1.921875
1695748055178,0.056640625,-1.0593872,0.05609131,-6.734375,-5.578125,-0.203125
1695748055223,-0.07348633,-1.0559692,0.11053467,-2.8125,-6.0,-2.921875
1695748055268,-0.030273438,-0.9505005,0.035339355,8.90625,3.453125,-4.3125
1695748055298,0.26293945,-0.94610596,0.020935059,5.078125,2.65625,-3.453125
1695748055343,0.07006836,-0.85601807,0.043640137,-2.359375,-7.671875,-0.046875
1695748055388,-0.018066406,-1.0134888,0.031677246,-0.640625,-6.515625,1.765625
1695748055417,0.11010742,-0.9961548,0.04852295,3.46875,1.59375,-1.671875
1695748055463,0.06274414,-1.0039673,0.09564209,-2.78125,-0.859375,-0.390625
1695748055508,-0.06762695,-1.0603638,0.11981201,-1.484375,1.15625,-1.71875
1695748055538,0.04711914,-1.0388794,0.07489014,0.921875,3.890625,-2.234375
1695748055583,0.076416016,-0.9595337,0.07122803,2.328125,1.203125,0.625
1695748055628,0.044433594,-0.9590454,0.12591553,-1.21875,-1.8125,2.921875
1695748055657,0.02319336,-0.9639282,0.121276855,-0.703125,-1.421875,3.0625
1695748055703,0.014404297,-0.9168091,0.13372803,0.484375,-0.046875,1.859375
1695748055749,-0.056884766,-0.95196533,0.14154053,-2.78125,1.046875,-2.796875
1695748055777,-0.017089844,-1.0186157,0.13201904,-2.921875,5.6875,-7.78125
1695748055827,-0.020263672,-0.9985962,0.1774292,-3.59375,9.34375,-9.84375
1695748055852,-0.11743164,-1.1248169,-0.0491333,-4.875,4.109375,-10.34375
1695748055899,0.2553711,-0.9077759,-0.04522705,4.9375,6.5625,4.390625
1695748055943,-0.10522461,-0.97613525,0.094177246,-5.5,6.328125,0.375
1695748055972,0.008300781,-1.0523071,-0.009094238,3.65625,6.296875,3.4375
1695748056020,0.12695312,-0.91412354,-0.014465332,-1.78125,1.15625,2.171875
1695748056063,-0.041748047,-1.0244751,0.07098389,-2.75,-2.96875,2.4375
1695748056107,-0.122802734,-1.0115356,0.04949951,2.375,1.625,-1.6875
1695748056137,-0.016357422,-0.9854126,0.032165527,7.015625,5.515625,-2.15625
1695748056184,-0.025146484,-1.0003052,0.038024902,3.90625,5.890625,-1.546875
1695748056213,-0.03881836,-0.9834595,0.043640137,1.953125,4.546875,-0.25
1695748056258,-0.02368164,-0.9619751,0.031433105,1.0625,4.3125,1.25
1695748056303,-0.03491211,-0.94073486,0.046081543,1.203125,2.75,1.65625
1695748056333,-0.05102539,-0.9734497,0.06439209,-0.953125,1.390625,2.921875
1695748056378,-0.05883789,-0.99102783,0.077819824,-3.03125,0.296875,2.140625
1695748056424,-0.037597656,-0.9776001,0.06341553,-4.0,-3.609375,1.8125
1695748056453,-0.076660156,-1.010315,0.070739746,-6.78125,-0.109375,-1.171875
1695748056499,0.072021484,-1.0869751,0.015075684,-3.625,-8.0625,-0.5
1695748056544,0.015136719,-1.0059204,0.14105225,4.484375,-1.78125,-1.859375
1695748056573,0.10839844,-0.9883423,0.0038452148,2.953125,-1.453125,-1.375
1695748056619,0.11767578,-0.9133911,-0.0025024414,2.4375,-2.703125,-0.859375
1695748056651,0.011230469,-0.9685669,0.08929443,1.0,-1.390625,-1.171875
1695748056694,0.08081055,-1.0171509,0.07220459,0.0,-0.578125,-1.859375
1695748056739,0.11816406,-0.9776001,0.11053467,-5.046875,-2.015625,-0.265625
1695748056783,0.0031738281,-1.0613403,0.08319092,-2.75,-3.109375,-0.125
1695748056813,0.091308594,-1.0066528,0.062927246,1.625,-1.296875,1.21875
1695748056874,0.04345703,-0.9649048,0.10662842,1.671875,-2.328125,2.21875
1695748056934,0.012939453,-0.9993286,0.1281128,-0.734375,-2.09375,1.96875
1695748056939,-0.005126953,-0.95806885,0.1251831,2.140625,0.859375,0.03125
1695748056978,0.0107421875,-0.91363525,0.11541748,2.484375,2.75,-0.921875
1695748057024,-0.0036621094,-0.92926025,0.113464355,1.3125,3.34375,-3.03125
1695748057068,-0.011230469,-0.9421997,0.17108154,-2.046875,5.6875,-7.15625
1695748057099,-0.027832031,-0.9805298,0.14178467,-3.640625,6.28125,-8.390625
1695748057128,0.0014648438,-1.0806274,0.08709717,-8.546875,5.96875,-5.265625
1695748057173,0.07543945,-1.0352173,-0.051330566,3.875,4.953125,-0.578125
1695748057249,-0.06713867,-0.83917236,-3.0517578E-4,2.046875,9.71875,-0.921875
1695748057254,0.061767578,-1.0640259,0.024841309,-5.125,8.34375,-0.078125
1695748057293,0.078125,-1.0064087,0.058044434,-1.71875,3.875,3.71875
1695748057322,-0.038085938,-0.9541626,0.043640137,-4.8125,2.15625,-0.09375
1695748057369,-0.06591797,-1.039856,0.02923584,-0.21875,3.890625,-0.75
1695748057414,-0.047607422,-1.0457153,0.043395996,4.109375,3.453125,-1.578125
1695748057445,-0.019042969,-1.0134888,0.08050537,2.859375,5.109375,-0.484375
1695748057488,-0.09082031,-0.98443604,0.06097412,2.6875,5.625,-0.40625
1695748057534,-0.03515625,-0.98028564,0.02508545,2.1875,7.109375,0.359375
1695748057563,-0.025878906,-0.9434204,0.050476074,1.53125,4.640625,1.15625
1695748057608,-0.022705078,-0.97369385,0.07733154,-0.09375,0.875,3.734375
1695748057653,-0.0234375,-0.9819946,0.06488037,-2.984375,-2.0,3.765625
1695748057683,-0.040771484,-0.96881104,0.08392334,-3.09375,-4.09375,2.734375
1695748057728,-0.10131836,-0.9837036,0.11981201,-0.796875,-2.890625,-0.4375
1695748057773,-0.008300781,-1.0471802,0.04852295,0.328125,-9.515625,-1.875
1695748057802,-0.04248047,-0.98028564,0.058532715,5.96875,-4.90625,-5.734375
1695748057848,0.12768555,-0.92437744,0.012878418,8.4375,0.3125,-2.875
1695748057909,0.1616211,-0.9624634,0.05633545,-1.796875,-5.921875,-2.390625
1695748057922,-0.03466797,-0.95440674,0.06414795,-1.40625,-7.84375,-3.078125
1695748057968,0.040283203,-1.0344849,0.008483887,2.15625,-0.625,-3.78125
1695748058014,0.11328125,-0.9849243,0.109313965,-4.1875,-0.625,-4.78125
1695748058060,-0.036132812,-1.0493774,0.15667725,-6.546875,-3.640625,-3.328125
1695748058104,-0.048339844,-1.0095825,0.13104248,-2.828125,0.515625,-3.859375
1695748058118,0.013671875,-1.020813,0.05291748,2.03125,2.109375,-3.46875
1695748058163,0.049072266,-0.98394775,0.11639404,2.921875,1.046875,0.21875
1695748058208,-0.0068359375,-0.99884033,0.1293335,-0.484375,-0.765625,1.609375
1695748058284,-0.017333984,-0.9656372,0.13372803,3.96875,-0.265625,2.703125
1695748058289,-0.025878906,-0.93048096,0.116882324,4.96875,0.84375,1.515625
1695748058343,-0.0703125,-0.93463135,0.15325928,6.578125,4.015625,-0.828125
1695748058358,-0.057373047,-0.94537354,0.11175537,2.234375,7.4375,-4.609375
1695748058419,0.013916016,-0.97540283,0.13543701,-2.28125,7.984375,-5.296875
1695748058448,-0.16186523,-1.1150513,-0.03302002,-4.609375,2.984375,-6.328125
1695748058479,0.24804688,-0.99346924,-0.011047363,6.484375,5.578125,6.09375
1695748058524,-0.09643555,-0.944397,0.0927124,-5.984375,1.015625,2.0625
1695748058568,-0.09375,-1.0239868,0.0040893555,3.234375,5.0625,1.265625
1695748058598,0.083740234,-0.93829346,-0.008117676,1.78125,3.203125,1.890625
1695748058643,-0.036376953,-0.9951782,0.026550293,-1.875,1.171875,1.796875
1695748058719,-0.09423828,-1.0169067,0.01751709,-1.6875,3.78125,-1.078125
1695748058724,-0.0014648438,-1.0110474,0.0289917,1.3125,4.96875,-0.546875
1695748058778,-0.037841797,-0.99957275,0.044128418,0.46875,2.921875,0.203125
1695748058793,-0.063964844,-0.99102783,0.05316162,-0.78125,2.515625,-0.34375
1695748058838,-0.07373047,-0.97491455,0.053649902,0.109375,3.921875,0.6875
1695748058885,-0.05053711,-0.95196533,0.022888184,-0.484375,3.328125,0.5625
1695748058913,-0.049072266,-0.95269775,0.070495605,-0.984375,2.203125,2.09375
1695748058958,-0.053710938,-0.9661255,0.08294678,-2.1875,1.515625,1.875
1695748059004,-0.037597656,-0.9639282,0.07684326,-2.609375,-1.65625,2.140625
1695748059032,-0.068603516,-0.99542236,0.08026123,-5.40625,-3.90625,0.578125
1695748059078,0.0031738281,-1.0540161,0.13128662,-6.96875,-5.890625,-1.046875
1695748059124,0.01171875,-1.0130005,0.0692749,-5.59375,-10.828125,-1.78125
1695748059153,-0.11743164,-0.9973755,0.097351074,1.375,-0.234375,-2.96875
1695748059198,0.13452148,-1.0669556,-0.024475098,10.09375,-1.4375,-2.703125
1695748059243,0.15063477,-0.9517212,-0.0032348633,3.609375,-5.625,-0.6875
1695748059273,-0.08520508,-0.85772705,0.09490967,3.140625,-4.53125,-0.640625
1695748059349,-0.03515625,-0.9920044,0.10345459,-2.921875,2.875,-5.375
1695748059362,0.088378906,-1.03302,0.09295654,-2.5625,3.484375,-4.953125
1695748059393,0.013427734,-1.0459595,0.0836792,-2.125,1.390625,-2.96875
1695748059438,0.034179688,-1.0354614,0.09515381,-1.1875,-0.171875,-1.0625
1695748059483,0.0029296875,-0.9800415,0.10662842,-1.6875,0.703125,0.609375
1695748059513,-0.001953125,-0.97857666,0.12322998,-0.3125,1.171875,1.515625
1695748059558,-0.025634766,-0.97125244,0.11102295,2.953125,3.25,1.453125
1695748059587,0.028320312,-0.9234009,0.0927124,3.296875,3.5,2.78125
1695748059633,0.0087890625,-0.9248657,0.11956787,-2.3125,3.890625,1.5625
1695748059678,-0.021728516,-0.95196533,0.1437378,-3.65625,3.359375,-0.28125
1695748059708,0.059570312,-0.99713135,0.16741943,-7.15625,-0.578125,-1.890625
1695748059753,-0.2626953,-1.0674438,0.21160889,-12.78125,8.703125,-8.6875
1695748059798,0.13378906,-1.086731,-0.074523926,5.25,2.484375,-4.203125
1695748059828,0.12719727,-0.9212036,0.09954834,-4.1875,2.21875,3.015625
1695748059889,-0.1772461,-1.0994263,0.12567139,-6.046875,5.578125,-1.28125
1695748059917,0.056396484,-0.86309814,0.07342529,4.046875,6.453125,-0.609375
1695748059948,-9.765625E-4,-0.9133911,0.042663574,-1.71875,3.390625,1.625
1695748059993,-0.07763672,-1.0142212,0.023620605,-1.84375,4.046875,1.234375
1695748060039,-0.043701172,-1.0010376,0.055114746,1.15625,5.625,-1.890625
1695748060068,-0.03881836,-1.0505981,0.12176514,-0.96875,3.984375,-0.46875
1695748060115,-0.064453125,-0.9993286,0.11199951,0.59375,4.390625,-1.765625
1695748060158,-0.0703125,-0.9612427,0.0770874,1.671875,7.1875,-1.546875
1695748060188,-0.015625,-0.9500122,0.06707764,3.390625,4.984375,0.015625
1695748060248,-0.04638672,-0.9505005,0.11224365,1.453125,2.421875,2.390625
1695748060263,-0.053710938,-0.9644165,0.08294678,-0.984375,0.078125,3.421875
1695748060308,-0.053222656,-0.9692993,0.10076904,0.1875,-2.734375,2.78125
1695748060384,-0.07714844,-1.0110474,0.10247803,-5.296875,-2.203125,0.625
1695748060387,-0.03149414,-1.069397,0.10760498,-6.625,-8.015625,-1.640625
1695748060428,-0.07495117,-1.015686,0.07122803,-3.71875,-7.78125,-4.328125
1695748060473,0.06298828,-0.954895,0.11932373,9.984375,4.265625,-2.25
1695748060502,0.2019043,-0.9920044,0.12860107,1.6875,0.671875,-0.28125
1695748060549,-0.021972656,-0.9365845,0.11077881,-4.703125,-3.296875,-1.828125
1695748060624,-0.08666992,-1.0171509,0.09051514,4.3125,3.03125,-1.4375
1695748060629,0.14794922,-1.0195923,0.09954834,1.421875,6.53125,-1.46875
1695748060683,0.052001953,-1.0061646,0.16986084,-5.8125,-1.28125,2.46875
1695748060713,-0.028564453,-1.0115356,0.15667725,-1.5625,-0.5,1.078125
1695748060743,0.06201172,-0.97662354,0.1239624,3.25,1.71875,1.765625
1695748060788,0.037597656,-0.9495239,0.152771,3.53125,-0.296875,1.9375
1695748060833,0.011474609,-0.97979736,0.17230225,2.640625,-1.484375,1.9375
1695748060878,-0.0078125,-0.94122314,0.15325928,5.0625,0.453125,0.75
1695748060907,-0.019042969,-0.91973877,0.1486206,5.171875,1.53125,-0.546875
1695748060953,-0.051513672,-0.9429321,0.1618042,3.921875,3.703125,-2.3125
1695748060982,-0.052734375,-0.9697876,0.16156006,0.625,5.671875,-4.875
1695748061028,0.015625,-1.0278931,0.1642456,-2.015625,3.375,-4.796875
1695748061058,-0.19067383,-1.0535278,0.19158936,-9.484375,10.21875,-8.0
1695748061104,0.03881836,-1.1177368,0.016540527,4.078125,8.46875,-6.828125
1695748061149,0.19946289,-0.88238525,0.043151855,-2.875,2.3125,4.296875
1695748061193,-0.16503906,-1.0374146,0.1720581,-7.4375,4.984375,0.203125
1695748061223,-0.057617188,-0.95391846,0.05291748,6.0625,11.015625,-2.8125
1695748061269,0.14746094,-0.9019165,0.05218506,3.421875,8.375,0.703125
1695748061298,-0.10498047,-1.0081177,0.06072998,-0.953125,8.140625,2.078125
1695748061358,-0.068359375,-0.9639282,-0.003967285,1.6875,11.046875,-1.90625
1695748061388,0.048828125,-1.0352173,0.061462402,-1.34375,5.6875,1.109375
1695748061417,-0.07348633,-1.0530396,0.10076904,-0.765625,1.96875,1.8125
1695748061463,-0.0847168,-1.0076294,0.11907959,0.15625,5.484375,-0.890625
1695748061508,-0.084472656,-0.9619751,0.073913574,2.828125,7.96875,-1.125
1695748061537,-0.051513672,-0.956604,0.055358887,2.15625,6.6875,0.875
1695748061582,-0.059570312,-0.95440674,0.08099365,-1.609375,3.515625,1.75
1695748061628,-0.032226562,-0.9373169,0.078552246,-4.21875,-0.890625,4.046875
1695748061659,-0.03491211,-0.956604,0.09564209,-5.375,-4.078125,4.28125
1695748061703,-0.09643555,-0.9768677,0.15765381,-6.046875,-3.40625,-1.125
1695748061732,-0.055908203,-1.0818481,0.073913574,-13.5,-8.5,-3.421875
1695748061779,-0.008544922,-0.99884033,0.1437378,8.484375,-0.21875,-1.6875
1695748061824,0.2614746,-0.88604736,0.13323975,5.15625,-1.78125,2.75
1695748061854,0.04321289,-0.9522095,0.1984253,-12.625,-10.625,0.78125
1695748061899,-0.1003418,-1.0742798,0.12884521,0.515625,-6.625,0.40625
1695748061943,0.12109375,-1.0222778,0.11102295,8.78125,-0.5,-1.1875
1695748061990,0.06982422,-1.0271606,0.20135498,-2.34375,-3.609375,1.640625
1695748062033,-0.052734375,-1.0357056,0.20721436,-3.890625,-4.859375,1.328125
1695748062062,0.040283203,-0.9505005,0.1762085,2.0,-1.640625,0.1875
1695748062093,0.05078125,-0.90093994,0.15423584,4.53125,0.140625,0.765625
1695748062141,0.04736328,-0.9224243,0.17108154,2.578125,-2.34375,1.34375
1695748062183,0.01928711,-0.9368286,0.18182373,2.71875,-1.765625,-0.140625
1695748062213,0.022460938,-0.94244385,0.16888428,3.03125,-1.34375,0.703125
1695748062259,-0.0017089844,-0.9729614,0.19232178,3.1875,-0.84375,-0.21875
1695748062303,-0.028320312,-0.9871216,0.19378662,2.421875,0.78125,-2.46875
1695748062332,-0.064697266,-0.94781494,0.16400146,2.109375,3.4375,-6.40625
1695748062378,0.08154297,-1.0120239,0.12835693,1.046875,3.515625,-5.21875
1695748062423,-0.13964844,-1.0701294,0.19232178,-8.96875,7.09375,-6.34375
1695748062453,0.16967773,-1.0940552,0.034118652,3.25,0.65625,-2.640625
1695748062498,-0.03173828,-0.8596802,0.13763428,-0.5,5.234375,0.53125
1695748062529,-0.076416016,-1.0647583,0.1251831,-3.21875,7.390625,-4.03125
1695748062573,0.06616211,-0.8987427,0.02532959,6.390625,8.75,-1.328125
1695748062619,0.03491211,-0.9302368,0.00970459,-1.015625,6.640625,-0.140625
1695748062648,-0.033447266,-1.0388794,0.027770996,0.828125,4.953125,1.359375
1695748062694,-0.03955078,-1.041565,0.07659912,0.0,4.09375,-1.171875
1695748062739,-0.059814453,-1.0471802,0.13079834,-0.265625,2.34375,-0.65625
1695748062768,-0.09863281,-1.0007935,0.10003662,2.375,5.3125,-3.140625
1695748062813,-0.06958008,-0.94976807,0.06536865,3.984375,5.65625,-1.75
1695748062859,-0.044921875,-0.9458618,0.0758667,3.8125,5.328125,-0.265625
1695748062888,-0.056884766,-0.9302368,0.074401855,2.65625,3.109375,1.328125
1695748062933,-0.044189453,-0.94366455,0.094177246,0.390625,0.90625,2.578125
1695748063028,-0.03125,-0.9573364,0.08416748,-0.71875,-2.65625,2.65625
1695748063033,-0.076171875,-0.9907837,0.093444824,-4.0625,-7.34375,0.90625
1695748063053,-0.08129883,-1.05719,0.09954834,-8.578125,-2.234375,-4.5
1695748063099,0.037353516,-1.125061,0.08831787,-3.046875,-6.5625,-3.34375
1695748063128,-0.0056152344,-0.8989868,0.12957764,3.703125,-9.078125,-3.59375
1695748063189,0.068359375,-0.96710205,0.06121826,2.953125,-2.890625,-2.796875
1695748063203,0.06201172,-0.9614868,0.08782959,-1.1875,-6.265625,-2.21875
1695748063248,-0.1159668,-1.0120239,0.12445068,-0.359375,-0.140625,-5.0
1695748063294,0.009521484,-1.0337524,0.12298584,-0.109375,3.109375,-5.015625
1695748063325,0.032714844,-1.0154419,0.14959717,-6.359375,1.125,-2.65625
1695748063368,-0.025878906,-1.017395,0.15667725,-6.09375,-2.265625,-0.8125
1695748063413,-0.018554688,-0.98883057,0.14666748,0.859375,-0.1875,0.859375
1695748063441,-0.010009766,-0.9505005,0.13543701,0.828125,1.453125,0.875
1695748063503,-0.015625,-0.94903564,0.1605835,1.265625,0.421875,2.921875
1695748063564,-0.004638672,-0.944397,0.17767334,3.03125,0.6875,3.140625
1695748063568,-0.036376953,-0.911438,0.18743896,2.859375,1.8125,2.84375
1695748063608,-0.042236328,-0.94854736,0.17425537,1.03125,1.109375,0.609375
1695748063684,-0.05053711,-0.9644165,0.19451904,-0.453125,1.703125,-2.4375
1695748063688,0.0061035156,-1.0278931,0.20257568,-4.796875,0.078125,-2.984375
1695748063731,-0.23510742,-1.0879517,0.21844482,-12.890625,4.6875,-6.828125
1695748063773,0.09741211,-1.0908813,0.0099487305,2.46875,4.140625,-5.0625
1695748063803,0.01928711,-0.9067993,0.14154053,-1.3125,4.1875,-0.890625
1695748063848,-0.1262207,-1.0576782,0.14154053,-2.8125,8.640625,-2.546875
1695748063924,0.018798828,-0.86309814,0.066345215,5.078125,12.34375,-1.5
1695748063929,0.043945312,-0.89141846,0.042663574,-1.953125,6.90625,0.796875
1695748063968,-0.045898438,-0.98931885,0.047302246,-5.375,5.03125,2.5
1695748063997,-0.09082031,-1.0335083,0.07733154,-2.65625,6.859375,-1.03125
1695748064044,-0.016845703,-1.0276489,0.109558105,2.84375,3.609375,-0.65625
1695748064092,-0.07104492,-1.0144653,0.15887451,-0.875,5.40625,-2.203125
1695748064120,-0.12060547,-0.98883057,0.13348389,3.90625,6.078125,-2.046875
1695748064165,-0.05493164,-0.97320557,0.101257324,4.109375,5.5625,-2.265625
1695748064209,-0.075683594,-0.94122314,0.11956787,2.296875,4.515625,0.09375
1695748064237,-0.09326172,-0.96295166,0.14666748,1.046875,3.0,2.171875
1695748064282,-0.09692383,-0.9595337,0.14349365,-1.96875,0.265625,2.421875
1695748064328,-0.075683594,-0.9397583,0.13079834,-2.546875,-0.828125,1.296875
1695748064358,-0.111328125,-0.973938,0.1227417,-6.125,-1.890625,-0.609375
1695748064403,-0.09423828,-1.0610962,0.15106201,-6.953125,1.4375,-5.421875
1695748064525,-0.016601562,-1.0952759,0.17401123,-2.75,-3.5,-4.75
1695748064531,-0.114746094,-0.9788208,0.20135498,-2.953125,-0.0625,-5.421875
1695748064535,0.114990234,-0.9963989,0.046569824,2.390625,0.109375,-5.09375
1695748064569,0.08911133,-0.8740845,0.093933105,1.671875,-5.390625,-1.296875
1695748064598,-0.011962891,-0.9702759,0.16644287,0.59375,-6.375,1.109375
1695748064644,-0.011474609,-0.96343994,0.1671753,1.3125,-2.21875,-1.953125
1695748064673,0.020751953,-0.99298096,0.16571045,-0.265625,-2.796875,-1.765625
1695748064718,-0.060302734,-1.0283813,0.184021,-1.0,-4.40625,-1.03125
1695748064765,-0.061035156,-1.0496216,0.17279053,3.4375,-2.828125,-1.171875
1695748064793,0.021728516,-0.97320557,0.14520264,3.359375,-3.3125,0.28125
