# Sensor type: Thingy
# Activity type: Sitting
# Activity subtype: Normal
# Subject id: s2063346
# Notes: thingy 1.25
timestamp,accel_x,accel_y,accel_z,gyro_x,gyro_y,gyro_z,mag_x,mag_y,mag_z
1695752199057,-0.296875,-0.484375,0.77734375,0.21875,1.5625,-0.1875,0.0,0.0,0.0
1695752199083,-0.29101562,-0.49902344,0.7832031,0.40625,1.5625,-0.25,0.875,-20.375,5.625
1695752199114,-0.296875,-0.49121094,0.796875,0.28125,1.625,-0.125,0.0,0.0,0.0
1695752199172,-0.2861328,-0.4951172,0.7832031,0.40625,1.5625,-0.125,0.0,0.0,0.0
1695752199202,-0.2861328,-0.48632812,0.7910156,0.09375,1.5,-0.1875,0.0,0.0,0.0
1695752199231,-0.2890625,-0.48828125,0.78027344,0.21875,1.5625,-0.25,0.0,0.0,0.0
1695752199293,-0.28222656,-0.4892578,0.7832031,0.28125,1.625,-0.125,0.0,0.0,0.0
1695752199322,-0.29492188,-0.48242188,0.79003906,0.15625,1.5,0.0,0.0,0.0,0.0
1695752199356,-0.28515625,-0.484375,0.78222656,0.03125,1.625,-0.125,0.0,0.0,0.0
1695752199412,-0.2841797,-0.4951172,0.79003906,0.0,1.6875,-0.1875,0.0,0.0,0.0
1695752199444,-0.2841797,-0.48535156,0.7871094,0.0,1.625,-0.125,0.0,0.0,0.0
1695752199472,-0.29492188,-0.4921875,0.78027344,0.28125,1.5625,0.0,0.0,0.0,0.0
1695752199531,-0.30273438,-0.49316406,0.79003906,0.28125,1.625,0.0,0.0,0.0,0.0
1695752199563,-0.28515625,-0.49804688,0.7792969,0.28125,1.4375,-0.125,0.0,0.0,0.0
1695752199595,-0.28515625,-0.49316406,0.7783203,0.21875,1.75,-0.125,1.1875,-21.125,4.3125
1695752199655,-0.28125,-0.48535156,0.78027344,0.21875,1.625,-0.1875,0.0,0.0,0.0
1695752199682,-0.29101562,-0.48339844,0.7783203,0.21875,1.75,-0.25,0.0,0.0,0.0
1695752199711,-0.29003906,-0.4892578,0.7832031,0.21875,1.5625,-0.125,0.0,0.0,0.0
1695752199772,-0.29101562,-0.5,0.7890625,0.46875,1.4375,0.0,0.0,0.0,0.0
1695752199862,-0.2841797,-0.49121094,0.7783203,0.40625,1.375,0.03125,0.0,0.0,0.0
1695752199866,-0.29589844,-0.49414062,0.7714844,0.71875,1.3125,-0.125,0.0,0.0,0.0
1695752199892,-0.27929688,-0.484375,0.7705078,0.34375,1.8125,-0.25,0.0,0.0,0.0
1695752199921,-0.29492188,-0.4951172,0.79003906,0.65625,1.6875,-0.125,0.0,0.0,0.0
1695752199954,-0.29101562,-0.48535156,0.7832031,0.65625,1.5625,0.0,0.0,0.0,0.0
1695752200012,-0.2939453,-0.49316406,0.7871094,0.46875,1.625,-0.125,0.0,0.0,0.0
1695752200072,-0.29785156,-0.4892578,0.78027344,0.53125,1.5625,0.0,0.0,0.0,0.0
1695752200074,-0.2939453,-0.484375,0.7910156,0.65625,1.6875,-0.125,2.125,-19.9375,3.6875
1695752200132,-0.29003906,-0.4951172,0.78222656,0.28125,1.875,0.0,0.0,0.0,0.0
1695752200163,-0.296875,-0.48046875,0.7832031,0.53125,1.5625,0.0,0.0,0.0,0.0
1695752200192,-0.29589844,-0.4892578,0.78808594,0.65625,1.4375,-0.125,0.0,0.0,0.0
1695752200252,-0.2919922,-0.47851562,0.7783203,0.65625,1.4375,-0.1875,0.0,0.0,0.0
1695752200282,-0.28320312,-0.4921875,0.78808594,0.53125,1.5,0.0,0.0,0.0,0.0
1695752200314,-0.2841797,-0.48046875,0.7841797,0.71875,1.21875,0.03125,0.0,0.0,0.0
1695752200373,-0.2841797,-0.49609375,0.7705078,0.34375,1.5625,0.0,0.0,0.0,0.0
1695752200401,-0.28710938,-0.48632812,0.78515625,0.34375,1.5,-0.125,0.0,0.0,0.0
1695752200432,-0.29589844,-0.48242188,0.78222656,0.65625,1.8125,0.0,0.0,0.0,0.0
1695752200493,-0.29003906,-0.4951172,0.78515625,0.65625,1.625,-0.125,0.0,0.0,0.0
1695752200523,-0.2890625,-0.4892578,0.7910156,0.65625,1.6875,0.0,0.0,0.0,0.0
1695752200552,-0.29589844,-0.48339844,0.78125,0.46875,1.75,-0.375,0.0,0.0,0.0
1695752200612,-0.29101562,-0.48632812,0.7890625,0.53125,1.6875,-0.1875,1.1875,-20.8125,7.0
1695752200642,-0.29492188,-0.48242188,0.7861328,0.53125,1.625,-0.125,0.0,0.0,0.0
1695752200673,-0.29785156,-0.484375,0.78515625,0.28125,1.6875,-0.125,0.0,0.0,0.0
1695752200732,-0.29003906,-0.484375,0.7998047,0.34375,1.3125,0.09375,0.0,0.0,0.0
1695752200762,-0.2890625,-0.4814453,0.7871094,0.0,1.6875,0.0,0.0,0.0,0.0
1695752200826,-0.2841797,-0.48828125,0.79589844,0.09375,1.4375,0.0,0.0,0.0,0.0
1695752200854,-0.29003906,-0.48632812,0.79296875,0.03125,1.625,0.0,0.0,0.0,0.0
1695752200882,-0.29492188,-0.48828125,0.7841797,0.28125,1.4375,-0.125,0.0,0.0,0.0
1695752200913,-0.28808594,-0.4921875,0.77246094,0.28125,1.3125,0.0,0.0,0.0,0.0
1695752201003,-0.28710938,-0.48828125,0.7890625,0.21875,1.6875,-0.25,0.0,0.0,0.0
1695752201008,-0.28808594,-0.49121094,0.7910156,0.03125,1.4375,-0.125,0.0,0.0,0.0
1695752201035,-0.2841797,-0.48632812,0.7792969,0.0,1.5625,-0.25,0.0,0.0,0.0
1695752201122,-0.29492188,-0.4794922,0.7919922,0.0,1.5625,-0.1875,2.125,-20.1875,5.0625
1695752201125,-0.28515625,-0.4873047,0.7910156,0.09375,1.75,-0.375,0.0,0.0,0.0
1695752201152,-0.29003906,-0.48828125,0.7861328,-0.25,1.8125,-0.375,0.0,0.0,0.0
1695752201212,-0.2939453,-0.4765625,0.7832031,-0.375,1.9375,-0.3125,0.0,0.0,0.0
1695752201242,-0.29101562,-0.4873047,0.79785156,-0.3125,1.625,0.0,0.0,0.0,0.0
1695752201271,-0.2919922,-0.48535156,0.7763672,-0.3125,1.375,0.0,0.0,0.0,0.0
1695752201337,-0.2890625,-0.48535156,0.78222656,-0.1875,1.28125,0.15625,0.0,0.0,0.0
1695752201364,-0.29003906,-0.5,0.7792969,0.15625,1.21875,0.15625,0.0,0.0,0.0
1695752201396,-0.2861328,-0.4951172,0.7871094,0.28125,1.375,0.0,0.0,0.0,0.0
1695752201452,-0.29589844,-0.4951172,0.78808594,0.0,1.75,-0.3125,0.0,0.0,0.0
1695752201483,-0.29101562,-0.49121094,0.79589844,0.03125,2.0,-0.375,0.0,0.0,0.0
1695752201512,-0.2939453,-0.4873047,0.78515625,-0.0625,2.125,-0.4375,0.0,0.0,0.0
1695752201572,-0.2919922,-0.49023438,0.7919922,0.15625,1.6875,-0.3125,0.0,0.0,0.0
1695752201603,-0.2919922,-0.48339844,0.7910156,0.34375,1.5,-0.125,1.0625,-20.9375,4.4375
1695752201631,-0.2861328,-0.49023438,0.7841797,0.28125,1.5625,0.0,0.0,0.0,0.0
1695752201692,-0.28222656,-0.49023438,0.7841797,0.03125,1.5625,-0.1875,0.0,0.0,0.0
1695752201723,-0.2939453,-0.4921875,0.7832031,0.09375,1.5625,-0.25,0.0,0.0,0.0
1695752201752,-0.29492188,-0.48828125,0.7753906,0.09375,1.4375,0.0,0.0,0.0,0.0
1695752201812,-0.2841797,-0.48632812,0.7832031,0.15625,1.625,-0.1875,0.0,0.0,0.0
1695752201842,-0.2890625,-0.484375,0.78125,0.34375,1.6875,-0.25,0.0,0.0,0.0
1695752201872,-0.28320312,-0.48828125,0.78027344,0.15625,1.6875,-0.1875,0.0,0.0,0.0
1695752201931,-0.2939453,-0.48242188,0.78027344,0.21875,2.0,-0.25,0.0,0.0,0.0
1695752201962,-0.28808594,-0.4892578,0.7714844,0.28125,2.0,-0.3125,0.0,0.0,0.0
1695752201992,-0.2890625,-0.49316406,0.7734375,0.40625,1.75,-0.1875,0.0,0.0,0.0
1695752202053,-0.2998047,-0.4892578,0.78222656,0.65625,1.4375,-0.125,0.0,0.0,0.0
1695752202083,-0.2939453,-0.4892578,0.7998047,0.40625,1.21875,0.03125,0.75,-20.1875,4.4375
1695752202111,-0.29589844,-0.48828125,0.78027344,0.15625,1.5625,-0.125,0.0,0.0,0.0
1695752202172,-0.2919922,-0.48535156,0.7861328,0.15625,1.75,-0.125,0.0,0.0,0.0
1695752202202,-0.28710938,-0.49121094,0.7949219,0.28125,1.5,-0.375,0.0,0.0,0.0
1695752202264,-0.28320312,-0.49414062,0.78222656,0.15625,1.5,-0.1875,0.0,0.0,0.0
1695752202292,-0.2890625,-0.4892578,0.78808594,0.34375,1.5625,0.0,0.0,0.0,0.0
1695752202352,-0.2890625,-0.49414062,0.7714844,0.40625,1.375,-0.125,0.0,0.0,0.0
1695752202356,-0.29296875,-0.5,0.79003906,0.0,1.6875,-0.25,0.0,0.0,0.0
1695752202414,-0.2939453,-0.4873047,0.7832031,0.03125,1.6875,-0.125,0.0,0.0,0.0
1695752202444,-0.28515625,-0.4873047,0.78808594,0.34375,1.625,0.0,0.0,0.0,0.0
1695752202473,-0.29589844,-0.49316406,0.7705078,0.21875,1.625,-0.125,0.0,0.0,0.0
1695752202564,-0.296875,-0.4951172,0.7890625,0.40625,1.625,-0.125,0.0,0.0,0.0
1695752202567,-0.29492188,-0.4873047,0.7783203,0.21875,1.8125,-0.25,0.0,0.0,0.0
1695752202594,-0.29101562,-0.49023438,0.7753906,0.09375,1.6875,-0.25,2.875,-20.5,4.125
1695752202653,-0.2939453,-0.484375,0.7841797,0.28125,1.6875,0.0,0.0,0.0,0.0
1695752202682,-0.29101562,-0.484375,0.7939453,0.34375,1.6875,0.03125,0.0,0.0,0.0
1695752202712,-0.296875,-0.49121094,0.7832031,0.28125,1.5625,0.03125,0.0,0.0,0.0
1695752202774,-0.28808594,-0.484375,0.7685547,0.40625,1.3125,0.03125,0.0,0.0,0.0
1695752202804,-0.29785156,-0.4892578,0.7871094,0.46875,1.5625,-0.125,0.0,0.0,0.0
1695752202832,-0.29296875,-0.49121094,0.7714844,0.46875,1.4375,0.03125,0.0,0.0,0.0
1695752202893,-0.28808594,-0.49316406,0.7841797,0.65625,1.4375,0.0,0.0,0.0,0.0
1695752202924,-0.28808594,-0.49121094,0.79003906,0.34375,1.5625,0.0,0.0,0.0,0.0
1695752202953,-0.2919922,-0.49609375,0.78027344,0.65625,1.6875,0.0,0.0,0.0,0.0
1695752203012,-0.2919922,-0.49121094,0.7832031,0.46875,1.875,-0.4375,0.0,0.0,0.0
1695752203043,-0.2919922,-0.4814453,0.7841797,0.46875,1.625,-0.25,0.0,0.0,0.0
1695752203120,-0.3046875,-0.4873047,0.7861328,0.40625,1.75,-0.125,1.0625,-19.4375,5.0625
1695752203133,-0.29296875,-0.4892578,0.7939453,0.46875,1.375,-0.125,0.0,0.0,0.0
1695752203161,-0.2890625,-0.48828125,0.7734375,0.78125,1.21875,0.0,0.0,0.0,0.0
1695752203191,-0.2919922,-0.48828125,0.79003906,0.46875,1.375,0.03125,0.0,0.0,0.0
1695752203252,-0.28320312,-0.4951172,0.7841797,0.46875,1.4375,0.0,0.0,0.0,0.0
1695752203282,-0.2763672,-0.4814453,0.7871094,0.46875,1.5625,0.0,0.0,0.0,0.0
1695752203373,-0.29003906,-0.48828125,0.7939453,0.46875,1.5625,0.0,0.0,0.0,0.0
1695752203377,-0.2919922,-0.48339844,0.78027344,0.53125,1.5,0.0,0.0,0.0,0.0
1695752203404,-0.29492188,-0.48632812,0.78515625,0.65625,1.625,-0.1875,0.0,0.0,0.0
1695752203432,-0.2939453,-0.4892578,0.78027344,0.46875,1.875,-0.25,0.0,0.0,0.0
1695752203492,-0.29589844,-0.48535156,0.7753906,0.90625,1.625,-0.125,0.0,0.0,0.0
1695752203522,-0.29101562,-0.48046875,0.7841797,0.53125,1.5,0.0,0.0,0.0,0.0
1695752203552,-0.29589844,-0.49023438,0.7841797,0.53125,1.4375,0.0,0.0,0.0,0.0
1695752203611,-0.29003906,-0.47851562,0.7861328,0.46875,1.4375,0.03125,0.3125,-21.25,5.8125
1695752203702,-0.2919922,-0.48828125,0.7871094,0.46875,1.75,0.0,0.0,0.0,0.0
1695752203705,-0.28710938,-0.49414062,0.78222656,0.28125,1.625,0.0,0.0,0.0,0.0
1695752203732,-0.28320312,-0.48632812,0.78027344,0.40625,1.625,0.0,0.0,0.0,0.0
1695752203762,-0.2861328,-0.48339844,0.78125,0.15625,1.5625,0.0,0.0,0.0,0.0
1695752203792,-0.29101562,-0.48339844,0.7919922,-0.125,-0.0625,0.03125,0.0,0.0,0.0
1695752203853,-0.29296875,-0.48339844,0.7890625,-0.1875,-0.0625,-0.125,0.0,0.0,0.0
1695752203883,-0.28808594,-0.47460938,0.79003906,0.03125,-0.0625,-0.125,0.0,0.0,0.0
1695752203912,-0.2939453,-0.47753906,0.7734375,0.03125,0.09375,-0.125,0.0,0.0,0.0
1695752203971,-0.2919922,-0.48046875,0.78515625,0.15625,-0.25,0.03125,0.0,0.0,0.0
1695752204003,-0.28710938,-0.48339844,0.78125,0.15625,-0.375,0.09375,0.0,0.0,0.0
1695752204031,-0.29101562,-0.4921875,0.77441406,-0.0625,-0.3125,0.03125,0.0,0.0,0.0
1695752204092,-0.29101562,-0.48242188,0.7890625,0.03125,-0.3125,0.03125,1.625,-20.375,6.6875
1695752204123,-0.2841797,-0.4892578,0.77441406,-0.25,0.09375,-0.125,0.0,0.0,0.0
1695752204153,-0.29003906,-0.48242188,0.79785156,-0.25,0.09375,-0.1875,0.0,0.0,0.0
1695752204212,-0.2939453,-0.4814453,0.7841797,-0.25,-0.0625,-0.125,0.0,0.0,0.0
1695752204243,-0.29589844,-0.48632812,0.7919922,-0.3125,0.0,-0.1875,0.0,0.0,0.0
1695752204273,-0.2890625,-0.48828125,0.7949219,-0.375,-0.0625,-0.1875,0.0,0.0,0.0
1695752204333,-0.29492188,-0.49121094,0.78808594,-0.3125,-0.125,-0.0625,0.0,0.0,0.0
1695752204362,-0.30078125,-0.48242188,0.7939453,-0.5,-0.1875,-0.0625,0.0,0.0,0.0
1695752204391,-0.2841797,-0.48632812,0.7890625,-0.3125,-0.0625,-0.125,0.0,0.0,0.0
1695752204452,-0.2861328,-0.484375,0.7910156,-0.375,0.03125,-0.25,0.0,0.0,0.0
1695752204482,-0.2919922,-0.48535156,0.79003906,-0.25,0.03125,-0.1875,0.0,0.0,0.0
1695752204514,-0.29296875,-0.48339844,0.7890625,-0.5,-0.0625,-0.125,0.0,0.0,0.0
1695752204571,-0.28125,-0.4892578,0.79785156,-0.5,0.09375,-0.0625,0.0,0.0,0.0
1695752204631,-0.28808594,-0.49023438,0.7861328,-0.625,-0.0625,0.09375,2.375,-21.875,4.875
1695752204634,-0.2919922,-0.4921875,0.7675781,-0.625,-0.125,0.0,0.0,0.0,0.0
1695752204691,-0.28222656,-0.48339844,0.7910156,-0.5625,0.03125,-0.125,0.0,0.0,0.0
1695752204725,-0.28808594,-0.49414062,0.78515625,-0.375,0.03125,-0.125,0.0,0.0,0.0
1695752204752,-0.28808594,-0.48242188,0.7841797,-0.5625,0.28125,-0.1875,0.0,0.0,0.0
1695752204812,-0.29589844,-0.48632812,0.7871094,-0.4375,0.03125,-0.125,0.0,0.0,0.0
1695752204841,-0.29101562,-0.4921875,0.78515625,-0.5,-0.0625,0.0,0.0,0.0,0.0
1695752204873,-0.2919922,-0.4873047,0.78222656,-0.375,-0.1875,0.03125,0.0,0.0,0.0
1695752204963,-0.2841797,-0.4951172,0.7871094,-0.3125,-0.0625,-0.125,0.0,0.0,0.0
1695752204966,-0.28515625,-0.484375,0.7841797,-0.125,-0.1875,-0.0625,0.0,0.0,0.0
1695752204993,-0.29003906,-0.49609375,0.77734375,-0.1875,0.15625,-0.1875,0.0,0.0,0.0
1695752205052,-0.29101562,-0.4873047,0.77734375,-0.0625,-0.125,-0.1875,0.0,0.0,0.0
1695752205083,-0.28808594,-0.4873047,0.7871094,0.0,0.0,-0.1875,3.4375,-21.125,4.5625
1695752205112,-0.28710938,-0.4873047,0.7792969,0.0,-0.125,-0.1875,0.0,0.0,0.0
1695752205171,-0.2861328,-0.4921875,0.78125,0.03125,-0.125,-0.125,0.0,0.0,0.0
1695752205202,-0.29589844,-0.49316406,0.7861328,-0.0625,-0.0625,-0.1875,0.0,0.0,0.0
1695752205233,-0.29101562,-0.484375,0.78027344,0.21875,-0.25,-0.125,0.0,0.0,0.0
1695752205291,-0.29785156,-0.48632812,0.78125,0.03125,0.0,-0.125,0.0,0.0,0.0
1695752205322,-0.2939453,-0.4873047,0.7783203,-0.125,-0.3125,0.0,0.0,0.0,0.0
1695752205385,-0.29101562,-0.48828125,0.7783203,0.09375,-0.4375,-0.125,0.0,0.0,0.0
1695752205413,-0.29003906,-0.49121094,0.7753906,-0.375,-0.0625,0.03125,0.0,0.0,0.0
1695752205442,-0.28515625,-0.47753906,0.7861328,-0.4375,0.03125,-0.1875,0.0,0.0,0.0
1695752205471,-0.29882812,-0.49023438,0.7861328,-0.3125,0.09375,-0.125,0.0,0.0,0.0
1695752205531,-0.29589844,-0.48339844,0.78125,-0.3125,-0.125,-0.125,0.0,0.0,0.0
1695752205562,-0.2919922,-0.4892578,0.78222656,-0.1875,-0.0625,-0.0625,0.0,0.0,0.0
1695752205594,-0.29101562,-0.4921875,0.79003906,-0.0625,-0.125,0.0,1.1875,-20.8125,5.3125
1695752205652,-0.29785156,-0.49316406,0.7871094,-0.0625,-0.0625,-0.125,0.0,0.0,0.0
1695752205682,-0.2939453,-0.49414062,0.77246094,0.03125,0.15625,-0.3125,0.0,0.0,0.0
1695752205714,-0.29492188,-0.5019531,0.7861328,-0.125,0.03125,0.0,0.0,0.0,0.0
1695752205772,-0.2890625,-0.4921875,0.7861328,-0.0625,-0.125,-0.1875,0.0,0.0,0.0
1695752205803,-0.29003906,-0.47070312,0.7841797,-0.25,-0.0625,0.0,0.0,0.0,0.0
1695752205832,-0.29296875,-0.4951172,0.7832031,0.09375,0.0,0.0,0.0,0.0,0.0
1695752205892,-0.2861328,-0.48046875,0.77246094,-0.0625,-0.125,0.09375,0.0,0.0,0.0
1695752205923,-0.29492188,-0.49609375,0.78125,-0.25,-0.0625,0.03125,0.0,0.0,0.0
1695752205952,-0.28808594,-0.49316406,0.77246094,0.0,0.0,0.03125,0.0,0.0,0.0
1695752206013,-0.2841797,-0.49316406,0.7998047,-0.0625,-0.0625,-0.125,0.0,0.0,0.0
1695752206042,-0.29492188,-0.484375,0.77441406,-0.3125,-0.0625,-0.0625,0.0,0.0,0.0
1695752206077,-0.2841797,-0.4873047,0.7890625,0.0,-0.1875,0.0,0.625,-19.3125,4.3125
1695752206133,-0.28320312,-0.49023438,0.80078125,0.21875,0.03125,0.03125,0.0,0.0,0.0
1695752206162,-0.2939453,-0.49121094,0.77246094,-0.4375,-0.0625,0.0,0.0,0.0,0.0
1695752206193,-0.29492188,-0.4814453,0.7792969,0.21875,-0.1875,-0.0625,0.0,0.0,0.0
1695752206251,-0.28515625,-0.4873047,0.78125,0.09375,-0.125,-0.125,0.0,0.0,0.0
1695752206284,-0.28710938,-0.4873047,0.7919922,0.09375,-0.0625,0.0,0.0,0.0,0.0
1695752206313,-0.29101562,-0.48632812,0.7792969,0.21875,-0.1875,0.03125,0.0,0.0,0.0
1695752206372,-0.28515625,-0.4951172,0.7861328,-0.25,0.0,-0.125,0.0,0.0,0.0
1695752206401,-0.2998047,-0.4873047,0.79003906,0.03125,0.03125,0.03125,0.0,0.0,0.0
1695752206433,-0.2939453,-0.47851562,0.77441406,0.0,0.03125,0.03125,0.0,0.0,0.0
1695752206492,-0.29785156,-0.48828125,0.78222656,0.09375,0.03125,-0.0625,0.0,0.0,0.0
1695752206522,-0.29492188,-0.4814453,0.7988281,-0.0625,-0.0625,0.03125,0.0,0.0,0.0
1695752206552,-0.29003906,-0.4814453,0.7714844,0.09375,-0.25,0.15625,0.0,0.0,0.0
1695752206612,-0.2861328,-0.48339844,0.77441406,0.40625,-0.25,0.15625,3.0,-20.0625,5.9375
1695752206644,-0.28710938,-0.4892578,0.78027344,0.0,-0.3125,0.0,0.0,0.0,0.0
1695752206673,-0.29296875,-0.4873047,0.7675781,0.0,-0.1875,0.0,0.0,0.0,0.0
1695752206732,-0.28808594,-0.484375,0.7861328,0.0,0.09375,0.0,0.0,0.0,0.0
1695752206793,-0.29296875,-0.48828125,0.7871094,-0.125,-0.0625,-0.1875,0.0,0.0,0.0
1695752206799,-0.29589844,-0.49316406,0.7792969,0.71875,0.03125,0.0,0.0,0.0,0.0
1695752206852,-0.2919922,-0.4873047,0.79296875,0.03125,-0.0625,-0.125,0.0,0.0,0.0
1695752206912,-0.2861328,-0.484375,0.78222656,0.21875,-0.25,-0.0625,0.0,0.0,0.0
1695752206916,-0.2919922,-0.48046875,0.77734375,0.21875,0.03125,-0.0625,0.0,0.0,0.0
1695752206972,-0.2890625,-0.4814453,0.7871094,0.03125,0.0,-0.125,0.0,0.0,0.0
1695752207002,-0.29589844,-0.48242188,0.7998047,0.03125,0.21875,-0.0625,0.0,0.0,0.0
1695752207033,-0.2919922,-0.49121094,0.7890625,-0.125,-0.25,-0.0625,0.0,0.0,0.0
1695752207093,-0.28808594,-0.4892578,0.7783203,0.09375,-0.3125,0.09375,1.5,-19.9375,4.75
1695752207123,-0.2919922,-0.484375,0.7832031,0.09375,-0.1875,0.03125,0.0,0.0,0.0
1695752207152,-0.2939453,-0.4921875,0.7783203,-0.1875,-0.1875,0.0,0.0,0.0,0.0
1695752207212,-0.29101562,-0.48242188,0.7910156,0.03125,0.09375,-0.25,0.0,0.0,0.0
1695752207242,-0.29003906,-0.4970703,0.7832031,0.09375,0.0,-0.1875,0.0,0.0,0.0
1695752207272,-0.2939453,-0.48828125,0.77441406,0.03125,-0.0625,0.0,0.0,0.0,0.0
1695752207334,-0.29101562,-0.48828125,0.7832031,0.0,-0.125,-0.0625,0.0,0.0,0.0
1695752207362,-0.29101562,-0.48632812,0.7783203,-0.0625,-0.3125,0.21875,0.0,0.0,0.0
1695752207393,-0.29296875,-0.4873047,0.78515625,-0.0625,-0.3125,0.03125,0.0,0.0,0.0
1695752207452,-0.29785156,-0.4814453,0.7949219,-0.0625,-0.125,0.03125,0.0,0.0,0.0
1695752207543,-0.29882812,-0.47265625,0.7783203,-0.0625,-0.0625,-0.0625,0.0,0.0,0.0
1695752207547,-0.29589844,-0.4892578,0.7861328,-0.25,-0.0625,-0.25,0.0,0.0,0.0
1695752207573,-0.29296875,-0.48632812,0.7832031,0.0,0.0,-0.125,0.0,0.0,0.0
1695752207602,-0.2939453,-0.48828125,0.78125,-0.25,-0.0625,-0.25,1.8125,-18.4375,5.0625
1695752207663,-0.2841797,-0.48632812,0.78027344,0.03125,-0.4375,-0.125,0.0,0.0,0.0
1695752207695,-0.28515625,-0.4892578,0.7832031,-0.1875,-0.375,0.15625,0.0,0.0,0.0
1695752207722,-0.2861328,-0.4951172,0.7861328,-0.3125,-0.125,-0.0625,0.0,0.0,0.0
1695752207752,-0.29003906,-0.48339844,0.7783203,-0.25,-0.1875,-0.125,0.0,0.0,0.0
1695752207812,-0.28125,-0.48339844,0.78515625,-0.4375,0.15625,-0.5,0.0,0.0,0.0
1695752207844,-0.2890625,-0.48242188,0.7949219,-0.3125,0.03125,-0.375,0.0,0.0,0.0
1695752207872,-0.28808594,-0.4892578,0.7792969,-0.1875,0.21875,-0.375,0.0,0.0,0.0
1695752207932,-0.29296875,-0.49121094,0.79003906,-0.375,-0.0625,-0.1875,0.0,0.0,0.0
1695752207962,-0.29003906,-0.47851562,0.7871094,-0.3125,-0.1875,-0.0625,0.0,0.0,0.0
1695752207991,-0.29003906,-0.49121094,0.78808594,-0.375,-0.4375,0.15625,0.0,0.0,0.0
1695752208053,-0.29101562,-0.48535156,0.78222656,-0.125,-0.25,0.09375,0.0,0.0,0.0
1695752208082,-0.27929688,-0.49023438,0.78125,-0.6875,-0.1875,-0.0625,1.1875,-21.125,4.5625
1695752208112,-0.2841797,-0.4765625,0.79296875,-0.25,0.09375,-0.1875,0.0,0.0,0.0
1695752208172,-0.29101562,-0.49121094,0.78222656,-0.375,0.15625,-0.1875,0.0,0.0,0.0
1695752208204,-0.2890625,-0.4951172,0.78515625,-0.25,0.03125,-0.125,0.0,0.0,0.0
1695752208232,-0.2890625,-0.48242188,0.7919922,-0.0625,-0.0625,-0.0625,0.0,0.0,0.0
1695752208292,-0.28222656,-0.49023438,0.765625,-0.25,-0.1875,-0.125,0.0,0.0,0.0
1695752208322,-0.29101562,-0.4794922,0.78125,-0.1875,-0.0625,-0.0625,0.0,0.0,0.0
1695752208352,-0.2890625,-0.48046875,0.78027344,0.03125,0.03125,0.0,0.0,0.0,0.0
1695752208413,-0.2998047,-0.48632812,0.8017578,0.0,0.03125,-0.0625,0.0,0.0,0.0
1695752208442,-0.29492188,-0.48242188,0.78808594,-0.1875,-0.125,-0.25,0.0,0.0,0.0
1695752208472,-0.2939453,-0.4794922,0.79296875,-0.0625,-0.3125,-0.0625,0.0,0.0,0.0
1695752208533,-0.29101562,-0.484375,0.7841797,-0.0625,-0.0625,-0.0625,0.0,0.0,0.0
1695752208563,-0.29003906,-0.4892578,0.796875,-0.25,-0.0625,-0.1875,0.0,0.0,0.0
1695752208592,-0.28808594,-0.48828125,0.78222656,-0.4375,-0.0625,-0.25,1.5,-20.1875,6.8125
1695752208653,-0.2841797,-0.4970703,0.7919922,-0.3125,0.0,0.03125,0.0,0.0,0.0
1695752208713,-0.2890625,-0.48632812,0.7832031,-0.1875,-0.125,0.03125,0.0,0.0,0.0
1695752208715,-0.28320312,-0.4873047,0.78808594,-0.4375,-0.0625,-0.125,0.0,0.0,0.0
1695752208803,-0.2890625,-0.4892578,0.7792969,-0.1875,-0.1875,-0.25,0.0,0.0,0.0
1695752208806,-0.29003906,-0.4814453,0.7861328,-0.125,-0.0625,-0.25,0.0,0.0,0.0
1695752208832,-0.29003906,-0.4892578,0.7871094,-0.0625,0.09375,-0.25,0.0,0.0,0.0
1695752208893,-0.2841797,-0.48339844,0.78515625,-0.0625,0.03125,-0.125,0.0,0.0,0.0
1695752208922,-0.29296875,-0.48632812,0.7949219,0.0,0.03125,-0.1875,0.0,0.0,0.0
1695752208952,-0.29003906,-0.4951172,0.78222656,0.15625,-0.15625,0.125,0.0,0.0,0.0
1695752209042,-0.2919922,-0.48535156,0.78222656,0.15625,-0.21875,0.125,0.0,0.0,0.0
1695752209045,-0.29589844,-0.4873047,0.77246094,0.03125,0.03125,0.125,0.0,0.0,0.0
1695752209074,-0.2939453,-0.48828125,0.79296875,0.1875,-0.09375,0.125,0.75,-22.3125,4.75
1695752209133,-0.2919922,-0.4892578,0.77441406,0.15625,-0.03125,-0.125,0.0,0.0,0.0
1695752209193,-0.29003906,-0.49609375,0.77441406,0.03125,-0.09375,0.125,0.0,0.0,0.0
1695752209196,-0.28320312,-0.49121094,0.78027344,0.15625,-0.15625,0.15625,0.0,0.0,0.0
1695752209254,-0.2890625,-0.49023438,0.78808594,-0.15625,-0.15625,0.125,0.0,0.0,0.0
1695752209282,-0.29296875,-0.4970703,0.78808594,-0.09375,-0.09375,0.0,0.0,0.0,0.0
1695752209312,-0.28515625,-0.49023438,0.7734375,0.25,0.15625,0.0625,0.0,0.0,0.0
1695752209372,-0.29101562,-0.48242188,0.7890625,0.15625,0.03125,-0.0625,0.0,0.0,0.0
1695752209403,-0.29003906,-0.48046875,0.7841797,0.15625,-0.03125,0.0625,0.0,0.0,0.0
1695752209433,-0.29101562,-0.4892578,0.7861328,0.4375,-0.15625,0.0,0.0,0.0,0.0
1695752209493,-0.2939453,-0.4873047,0.7841797,0.1875,0.03125,0.0625,0.0,0.0,0.0
1695752209523,-0.29101562,-0.4794922,0.78125,0.15625,-0.21875,0.0,0.0,0.0,0.0
1695752209554,-0.28222656,-0.49316406,0.79003906,-0.03125,-0.09375,0.0625,0.0,0.0,0.0
1695752209613,-0.29003906,-0.49414062,0.7763672,-0.03125,-0.03125,0.0625,0.75,-19.9375,5.8125
1695752209643,-0.29003906,-0.49414062,0.7753906,0.15625,0.15625,0.15625,0.0,0.0,0.0
1695752209672,-0.29003906,-0.4814453,0.78222656,0.3125,-0.09375,0.125,0.0,0.0,0.0
1695752209732,-0.29589844,-0.48828125,0.78125,0.25,0.09375,0.15625,0.0,0.0,0.0
1695752209763,-0.30273438,-0.49414062,0.7832031,0.3125,0.03125,0.21875,0.0,0.0,0.0
1695752209794,-0.2919922,-0.4814453,0.7714844,0.4375,0.09375,0.0625,0.0,0.0,0.0
1695752209852,-0.2890625,-0.48242188,0.78027344,0.15625,-0.03125,0.15625,0.0,0.0,0.0
1695752209884,-0.29003906,-0.48242188,0.7841797,0.375,0.03125,0.125,0.0,0.0,0.0
1695752209973,-0.2919922,-0.4873047,0.7890625,0.3125,-0.03125,0.0625,0.0,0.0,0.0
1695752209977,-0.2998047,-0.48535156,0.7841797,0.1875,-0.15625,0.15625,0.0,0.0,0.0
1695752210002,-0.29101562,-0.48828125,0.78808594,0.15625,-0.09375,0.125,0.0,0.0,0.0
1695752210032,-0.29003906,-0.4873047,0.7890625,0.25,0.03125,0.21875,0.0,0.0,0.0
1695752210094,-0.28808594,-0.4873047,0.7783203,0.15625,-0.15625,0.0,1.8125,-20.9375,5.0625
1695752210123,-0.28515625,-0.484375,0.78808594,0.25,0.03125,0.0,0.0,0.0,0.0
1695752210153,-0.29492188,-0.48535156,0.78125,0.1875,0.21875,-0.0625,0.0,0.0,0.0
1695752210212,-0.29296875,-0.48046875,0.7832031,0.1875,0.03125,0.15625,0.0,0.0,0.0
1695752210272,-0.28320312,-0.49023438,0.7939453,0.375,-0.21875,0.0625,0.0,0.0,0.0
1695752210275,-0.28710938,-0.49121094,0.78808594,0.15625,-0.15625,0.125,0.0,0.0,0.0
1695752210332,-0.29296875,-0.4873047,0.7841797,0.4375,-0.09375,0.0625,0.0,0.0,0.0
1695752210362,-0.2919922,-0.4892578,0.7783203,0.25,0.15625,-0.125,0.0,0.0,0.0
1695752210392,-0.2890625,-0.48242188,0.796875,0.3125,0.34375,-0.1875,0.0,0.0,0.0
1695752210451,-0.2890625,-0.4794922,0.7753906,0.4375,0.15625,-0.1875,0.0,0.0,0.0
1695752210483,-0.29003906,-0.47851562,0.7792969,0.375,-0.09375,0.15625,0.0,0.0,0.0
1695752210511,-0.29296875,-0.48046875,0.78222656,0.3125,-0.15625,0.125,0.0,0.0,0.0
1695752210572,-0.28808594,-0.4873047,0.7841797,0.3125,-0.21875,0.21875,0.0,0.0,0.0
1695752210602,-0.28808594,-0.48828125,0.78808594,0.15625,-0.15625,0.21875,1.5,-19.9375,5.5
1695752210633,-0.30078125,-0.4892578,0.7871094,0.09375,-0.21875,0.28125,0.0,0.0,0.0
1695752210692,-0.2841797,-0.4892578,0.7919922,0.09375,0.03125,0.21875,0.0,0.0,0.0
1695752210722,-0.29296875,-0.48632812,0.7910156,0.03125,0.03125,0.0,0.0,0.0,0.0
1695752210753,-0.28515625,-0.4794922,0.796875,0.15625,0.03125,0.0625,0.0,0.0,0.0
1695752210812,-0.2939453,-0.4794922,0.7919922,0.03125,0.03125,0.125,0.0,0.0,0.0
1695752210842,-0.296875,-0.49316406,0.7939453,0.15625,-0.15625,-0.0625,0.0,0.0,0.0
1695752210872,-0.29492188,-0.4794922,0.79003906,0.15625,-0.03125,0.0625,0.0,0.0,0.0
1695752210932,-0.29003906,-0.49121094,0.7841797,0.03125,-0.21875,0.0625,0.0,0.0,0.0
1695752210962,-0.28515625,-0.4794922,0.7783203,0.15625,-0.09375,0.0625,0.0,0.0,0.0
1695752210992,-0.2890625,-0.48339844,0.78222656,-0.09375,-0.28125,0.125,0.0,0.0,0.0
1695752211052,-0.29785156,-0.4892578,0.78222656,0.1875,-0.03125,0.0625,0.0,0.0,0.0
1695752211082,-0.2841797,-0.4873047,0.78125,-0.09375,-0.15625,0.15625,1.9375,-20.0625,5.9375
1695752211113,-0.2939453,-0.48339844,0.7919922,-0.03125,-0.09375,0.0,0.0,0.0,0.0
1695752211203,-0.2890625,-0.48632812,0.7939453,0.03125,0.09375,-0.125,0.0,0.0,0.0
1695752211207,-0.29492188,-0.48046875,0.79003906,-0.40625,0.21875,-0.0625,0.0,0.0,0.0
1695752211232,-0.28808594,-0.4921875,0.78125,-0.09375,0.15625,0.0,0.0,0.0,0.0
1695752211292,-0.2890625,-0.4892578,0.7919922,-0.21875,0.09375,-0.0625,0.0,0.0,0.0
1695752211382,-0.2939453,-0.48046875,0.78125,-0.03125,-0.03125,0.0,0.0,0.0,0.0
1695752211385,-0.2861328,-0.48535156,0.78515625,-0.09375,-0.15625,0.0625,0.0,0.0,0.0
1695752211413,-0.2939453,-0.49121094,0.8027344,-0.09375,-0.09375,0.125,0.0,0.0,0.0
1695752211474,-0.28808594,-0.4892578,0.79003906,-0.21875,-0.09375,0.0625,0.0,0.0,0.0
1695752211478,-0.29101562,-0.4970703,0.7832031,-0.03125,-0.09375,0.0625,0.0,0.0,0.0
1695752211532,-0.28515625,-0.48828125,0.7783203,-0.34375,0.34375,0.0,0.0,0.0,0.0
1695752211562,-0.28515625,-0.49316406,0.7792969,-0.03125,0.09375,0.0625,0.0,0.0,0.0
1695752211592,-0.29003906,-0.49023438,0.7988281,0.15625,-0.03125,0.0625,0.3125,-20.1875,5.8125
1695752211652,-0.2998047,-0.49023438,0.7753906,-0.15625,0.03125,0.15625,0.0,0.0,0.0
1695752211682,-0.2890625,-0.48339844,0.79003906,0.09375,0.03125,0.0,0.0,0.0,0.0
1695752211713,-0.29589844,-0.48535156,0.7890625,0.03125,0.28125,0.0625,0.0,0.0,0.0
1695752211772,-0.296875,-0.4892578,0.7861328,0.15625,0.09375,0.0,0.0,0.0,0.0
1695752211802,-0.29003906,-0.4921875,0.7734375,0.03125,-0.21875,0.0,0.0,0.0,0.0
1695752211835,-0.29101562,-0.4873047,0.7705078,0.1875,-0.15625,0.15625,0.0,0.0,0.0
1695752211898,-0.2919922,-0.49414062,0.78515625,0.15625,-0.15625,0.125,0.0,0.0,0.0
1695752211924,-0.29296875,-0.49121094,0.7792969,0.25,0.03125,0.0,0.0,0.0,0.0
1695752211954,-0.28808594,-0.49023438,0.7841797,0.03125,0.03125,0.21875,0.0,0.0,0.0
1695752212012,-0.27441406,-0.4892578,0.78808594,0.25,0.15625,0.0,0.0,0.0,0.0
1695752212042,-0.29589844,-0.4921875,0.7910156,0.03125,0.15625,0.21875,0.0,0.0,0.0
1695752212074,-0.29296875,-0.47851562,0.7734375,0.15625,-0.15625,0.0,1.8125,-19.1875,4.75
1695752212133,-0.28320312,-0.48632812,0.7783203,-0.03125,-0.03125,0.0625,0.0,0.0,0.0
1695752212162,-0.29492188,-0.48339844,0.7939453,0.1875,0.09375,-0.0625,0.0,0.0,0.0
1695752212222,-0.2890625,-0.4892578,0.7832031,0.09375,0.21875,-0.1875,0.0,0.0,0.0
1695752212252,-0.29101562,-0.4921875,0.7890625,0.15625,-0.03125,0.125,0.0,0.0,0.0
1695752212282,-0.2890625,-0.48632812,0.7783203,0.4375,-0.21875,0.15625,0.0,0.0,0.0
1695752212312,-0.29589844,-0.4892578,0.78515625,0.1875,0.03125,0.0625,0.0,0.0,0.0
1695752212372,-0.2890625,-0.49023438,0.78125,0.15625,-0.03125,0.0625,0.0,0.0,0.0
1695752212403,-0.29101562,-0.48828125,0.78125,0.25,-0.03125,0.125,0.0,0.0,0.0
1695752212432,-0.29101562,-0.4873047,0.78027344,0.03125,0.21875,0.0625,0.0,0.0,0.0
1695752212492,-0.28710938,-0.4873047,0.7919922,0.25,0.09375,0.125,0.0,0.0,0.0
1695752212522,-0.29101562,-0.49121094,0.7949219,0.1875,0.09375,0.125,0.0,0.0,0.0
1695752212552,-0.296875,-0.4814453,0.7939453,0.09375,-0.03125,0.125,0.0,0.0,0.0
1695752212641,-0.2861328,-0.49023438,0.796875,0.3125,0.03125,0.0,0.75,-20.1875,4.4375
1695752212644,-0.2998047,-0.48046875,0.7939453,0.09375,0.03125,0.0625,0.0,0.0,0.0
1695752212672,-0.2939453,-0.49121094,0.7871094,0.1875,-0.03125,0.15625,0.0,0.0,0.0
1695752212733,-0.2783203,-0.48242188,0.7871094,0.1875,-0.15625,0.28125,0.0,0.0,0.0
1695752212762,-0.28710938,-0.48632812,0.78222656,0.3125,-0.375,0.21875,0.0,0.0,0.0
1695752212793,-0.28320312,-0.4921875,0.7792969,0.25,-0.09375,0.15625,0.0,0.0,0.0
1695752212852,-0.28320312,-0.48339844,0.79003906,0.3125,-0.03125,0.21875,0.0,0.0,0.0
1695752212881,-0.2919922,-0.49804688,0.7861328,0.15625,-0.03125,0.125,0.0,0.0,0.0
1695752212913,-0.28125,-0.4873047,0.79296875,0.3125,0.03125,0.15625,0.0,0.0,0.0
1695752212972,-0.28710938,-0.49414062,0.7919922,0.375,-0.03125,0.21875,0.0,0.0,0.0
1695752213002,-0.29882812,-0.49023438,0.76953125,0.25,0.09375,0.0625,0.0,0.0,0.0
1695752213032,-0.29492188,-0.48242188,0.7861328,0.25,0.09375,0.0625,0.0,0.0,0.0
1695752213092,-0.2919922,-0.48242188,0.7763672,0.375,0.21875,0.0,1.625,-20.0625,4.875
1695752213123,-0.29882812,-0.48046875,0.7861328,0.375,-0.03125,0.125,0.0,0.0,0.0
1695752213152,-0.2919922,-0.48828125,0.7890625,0.4375,-0.34375,0.15625,0.0,0.0,0.0
1695752213211,-0.29003906,-0.49121094,0.78808594,0.375,-0.34375,0.28125,0.0,0.0,0.0
1695752213242,-0.2939453,-0.48828125,0.7890625,0.3125,-0.15625,0.28125,0.0,0.0,0.0
1695752213272,-0.28515625,-0.49121094,0.77441406,0.3125,0.09375,0.15625,0.0,0.0,0.0
1695752213332,-0.2939453,-0.48242188,0.7841797,0.3125,0.15625,0.0625,0.0,0.0,0.0
1695752213362,-0.29003906,-0.49023438,0.7705078,0.375,0.21875,0.0625,0.0,0.0,0.0
1695752213392,-0.28515625,-0.4873047,0.78515625,0.3125,0.03125,0.28125,0.0,0.0,0.0
1695752213453,-0.2919922,-0.4921875,0.796875,0.5,-0.03125,0.0625,0.0,0.0,0.0
1695752213486,-0.29101562,-0.4892578,0.7841797,0.3125,0.09375,0.125,0.0,0.0,0.0
1695752213511,-0.2841797,-0.48046875,0.80078125,0.4375,0.09375,0.15625,0.0,0.0,0.0
1695752213572,-0.29101562,-0.49023438,0.7714844,0.375,0.09375,0.125,0.0,0.0,0.0
1695752213632,-0.2890625,-0.48339844,0.77734375,0.1875,-0.03125,0.15625,0.625,-19.625,3.5625
1695752213635,-0.29003906,-0.4814453,0.7910156,0.25,-0.03125,0.28125,0.0,0.0,0.0
1695752213692,-0.2919922,-0.4951172,0.7871094,0.1875,-0.09375,0.125,0.0,0.0,0.0
1695752213751,-0.29589844,-0.49121094,0.7832031,0.25,-0.09375,0.15625,0.0,0.0,0.0
1695752213755,-0.27734375,-0.48828125,0.7939453,0.1875,0.15625,0.15625,0.0,0.0,0.0
1695752213812,-0.28515625,-0.48535156,0.7861328,0.1875,0.09375,0.15625,0.0,0.0,0.0
1695752213841,-0.28125,-0.4921875,0.7871094,0.03125,-0.15625,0.125,0.0,0.0,0.0
1695752213871,-0.2939453,-0.48339844,0.7910156,0.1875,0.03125,0.125,0.0,0.0,0.0
1695752213935,-0.2919922,-0.47851562,0.78515625,0.15625,0.03125,0.15625,0.0,0.0,0.0
1695752213963,-0.2890625,-0.48828125,0.7841797,0.3125,0.09375,0.0,0.0,0.0,0.0
1695752213992,-0.29492188,-0.47753906,0.78515625,0.09375,0.03125,-0.0625,0.0,0.0,0.0
1695752214051,-0.29101562,-0.4892578,0.78125,0.1875,-0.21875,0.0,0.0,0.0,0.0
1695752214082,-0.28808594,-0.48632812,0.78515625,0.1875,-0.28125,0.0625,1.0625,-20.1875,5.8125
1695752214111,-0.29882812,-0.4892578,0.78222656,0.15625,-0.375,0.15625,0.0,0.0,0.0
1695752214172,-0.28515625,-0.4921875,0.7792969,0.09375,-0.28125,0.125,0.0,0.0,0.0
1695752214201,-0.2841797,-0.4814453,0.7792969,-0.21875,0.03125,0.0625,0.0,0.0,0.0
1695752214232,-0.28808594,-0.48339844,0.7861328,-0.21875,0.15625,0.0625,0.0,0.0,0.0
1695752214292,-0.296875,-0.48339844,0.7910156,0.03125,0.09375,0.0625,0.0,0.0,0.0
1695752214323,-0.29003906,-0.4892578,0.78027344,-0.03125,0.03125,0.0,0.0,0.0,0.0
1695752214352,-0.29492188,-0.4892578,0.7939453,0.03125,-0.03125,-0.0625,0.0,0.0,0.0
1695752214412,-0.29589844,-0.48046875,0.77441406,-0.15625,0.03125,0.0625,0.0,0.0,0.0
1695752214442,-0.29785156,-0.48339844,0.7763672,-0.15625,-0.09375,0.125,0.0,0.0,0.0
1695752214502,-0.2890625,-0.4892578,0.78515625,-0.03125,-0.28125,0.21875,0.0,0.0,0.0
1695752214532,-0.28222656,-0.49023438,0.77441406,-0.03125,-0.34375,0.28125,0.0,0.0,0.0
1695752214563,-0.29785156,-0.48242188,0.8027344,0.15625,-0.21875,0.21875,0.0,0.0,0.0
1695752214592,-0.2919922,-0.4951172,0.7890625,-0.09375,0.09375,0.15625,0.875,-17.9375,6.25
1695752214652,-0.28808594,-0.49023438,0.78027344,0.03125,0.09375,-0.0625,0.0,0.0,0.0
1695752214684,-0.29589844,-0.48828125,0.78125,-0.09375,0.28125,-0.0625,0.0,0.0,0.0
1695752214713,-0.29296875,-0.48632812,0.7871094,0.03125,0.09375,0.15625,0.0,0.0,0.0
1695752214772,-0.2861328,-0.48242188,0.7783203,0.15625,-0.09375,0.15625,0.0,0.0,0.0
1695752214803,-0.2919922,-0.484375,0.7832031,0.09375,0.09375,0.125,0.0,0.0,0.0
1695752214832,-0.2919922,-0.49316406,0.79003906,-0.03125,0.28125,-0.25,0.0,0.0,0.0
1695752214891,-0.2939453,-0.48535156,0.79003906,-0.03125,0.34375,-0.0625,0.0,0.0,0.0
1695752214922,-0.29296875,-0.484375,0.7753906,0.03125,-0.21875,0.15625,0.0,0.0,0.0
1695752214952,-0.28125,-0.4951172,0.7714844,0.15625,-0.4375,0.28125,0.0,0.0,0.0
1695752215012,-0.29101562,-0.5019531,0.7783203,0.15625,-0.28125,0.125,0.0,0.0,0.0
1695752215042,-0.2841797,-0.4892578,0.77734375,-0.03125,-0.03125,0.0625,0.0,0.0,0.0
1695752215072,-0.2861328,-0.4921875,0.7871094,0.15625,0.09375,0.0625,1.5,-19.1875,4.4375
1695752215132,-0.29101562,-0.49121094,0.78808594,0.1875,0.21875,0.0625,0.0,0.0,0.0
1695752215222,-0.28808594,-0.48535156,0.7841797,0.3125,-0.09375,0.15625,0.0,0.0,0.0
1695752215225,-0.29785156,-0.48828125,0.7841797,0.1875,-0.03125,0.125,0.0,0.0,0.0
1695752215283,-0.296875,-0.49121094,0.7910156,0.1875,0.03125,-0.125,0.0,0.0,0.0
1695752215286,-0.29296875,-0.4873047,0.7919922,0.25,-0.09375,0.0,0.0,0.0,0.0
1695752215312,-0.29101562,-0.4892578,0.7988281,0.15625,0.09375,0.125,0.0,0.0,0.0
1695752215373,-0.2939453,-0.48632812,0.7939453,-0.03125,-0.15625,0.125,0.0,0.0,0.0
1695752215403,-0.29492188,-0.4814453,0.77246094,0.25,-0.15625,0.15625,0.0,0.0,0.0
1695752215462,-0.28515625,-0.47851562,0.7861328,-0.15625,0.09375,0.03125,0.0,0.0,0.0
1695752215493,-0.29101562,-0.49023438,0.7871094,0.15625,-0.15625,-0.03125,0.0,0.0,0.0
1695752215523,-0.28808594,-0.49609375,0.7861328,0.09375,-0.03125,0.0625,0.0,0.0,0.0
1695752215553,-0.28710938,-0.49414062,0.78808594,0.09375,-0.09375,0.03125,0.0,0.0,0.0
1695752215612,-0.28125,-0.4921875,0.7890625,0.21875,0.09375,0.0625,0.3125,-19.9375,4.125
1695752215642,-0.28515625,-0.49316406,0.78808594,-0.03125,-0.09375,0.03125,0.0,0.0,0.0
1695752215672,-0.2919922,-0.49023438,0.7832031,0.03125,0.15625,-0.09375,0.0,0.0,0.0
1695752215734,-0.29101562,-0.49902344,0.7841797,-0.03125,0.09375,-0.15625,0.0,0.0,0.0
1695752215763,-0.29101562,-0.49023438,0.7890625,0.15625,0.15625,-0.15625,0.0,0.0,0.0
1695752215794,-0.29296875,-0.48828125,0.7832031,0.03125,-0.03125,-0.03125,0.0,0.0,0.0
1695752215851,-0.29589844,-0.4873047,0.78808594,0.28125,-0.15625,0.03125,0.0,0.0,0.0
1695752215882,-0.2861328,-0.48632812,0.79785156,0.21875,-0.03125,0.125,0.0,0.0,0.0
1695752215914,-0.2890625,-0.49609375,0.7871094,-0.09375,-0.03125,0.0625,0.0,0.0,0.0
1695752215972,-0.2890625,-0.48828125,0.7988281,0.28125,-0.09375,0.03125,0.0,0.0,0.0
1695752216033,-0.29296875,-0.4892578,0.7832031,0.09375,-0.09375,0.03125,0.0,0.0,0.0
1695752216035,-0.2939453,-0.4892578,0.7871094,0.40625,-0.09375,0.03125,0.0,0.0,0.0
1695752216092,-0.29003906,-0.48242188,0.78515625,0.46875,0.03125,0.0625,1.0625,-20.5,3.6875
1695752216123,-0.28808594,-0.4814453,0.78515625,0.28125,0.09375,0.0625,0.0,0.0,0.0
1695752216152,-0.2919922,-0.49023438,0.7763672,0.34375,-0.09375,0.03125,0.0,0.0,0.0
1695752216212,-0.29492188,-0.48339844,0.7705078,0.34375,0.09375,0.03125,0.0,0.0,0.0
1695752216243,-0.2890625,-0.48828125,0.78125,0.28125,0.03125,0.125,0.0,0.0,0.0
1695752216277,-0.29003906,-0.48242188,0.796875,0.34375,-0.15625,0.125,0.0,0.0,0.0
1695752216332,-0.2841797,-0.49121094,0.7910156,0.15625,-0.03125,0.125,0.0,0.0,0.0
1695752216362,-0.2861328,-0.48632812,0.7939453,0.21875,-0.09375,0.0625,0.0,0.0,0.0
1695752216392,-0.2919922,-0.4951172,0.78027344,0.15625,-0.15625,0.03125,0.0,0.0,0.0
1695752216481,-0.2861328,-0.48632812,0.7998047,0.15625,0.03125,0.03125,0.0,0.0,0.0
1695752216484,-0.28808594,-0.48046875,0.7919922,0.15625,0.03125,-0.03125,0.0,0.0,0.0
1695752216511,-0.296875,-0.4873047,0.78808594,0.46875,0.09375,0.125,0.0,0.0,0.0
1695752216572,-0.28808594,-0.49121094,0.7910156,0.21875,-0.09375,0.25,0.0,0.0,0.0
1695752216602,-0.28808594,-0.48339844,0.7832031,0.46875,-0.21875,0.0625,0.875,-20.375,4.875
1695752216632,-0.28515625,-0.484375,0.7792969,0.15625,0.09375,-0.03125,0.0,0.0,0.0
1695752216692,-0.2998047,-0.49316406,0.79003906,0.28125,-0.03125,-0.15625,0.0,0.0,0.0
1695752216722,-0.28808594,-0.49609375,0.79003906,0.28125,0.34375,-0.15625,0.0,0.0,0.0
1695752216782,-0.29003906,-0.484375,0.7861328,0.40625,0.03125,0.0625,0.0,0.0,0.0
1695752216812,-0.2841797,-0.4814453,0.7832031,0.15625,0.09375,-0.03125,0.0,0.0,0.0
1695752216842,-0.2939453,-0.48242188,0.7871094,0.09375,-0.09375,0.0625,0.0,0.0,0.0
1695752216871,-0.2890625,-0.484375,0.80078125,0.21875,-0.09375,0.125,0.0,0.0,0.0
1695752216932,-0.29589844,-0.4970703,0.79589844,0.09375,-0.03125,0.0625,0.0,0.0,0.0
1695752216964,-0.29492188,-0.4892578,0.7861328,0.15625,-0.09375,0.125,0.0,0.0,0.0
1695752216993,-0.29492188,-0.48828125,0.78027344,0.09375,0.09375,0.125,0.0,0.0,0.0
1695752217052,-0.2861328,-0.48632812,0.7861328,0.21875,-0.03125,0.125,0.0,0.0,0.0
1695752217085,-0.29296875,-0.47753906,0.79003906,0.15625,-0.03125,0.03125,0.875,-20.0625,4.5625
1695752217111,-0.2939453,-0.47851562,0.78125,0.34375,-0.15625,0.1875,0.0,0.0,0.0
1695752217172,-0.2939453,-0.484375,0.7871094,0.28125,-0.09375,-0.03125,0.0,0.0,0.0
1695752217202,-0.29296875,-0.484375,0.78125,0.21875,0.03125,0.03125,0.0,0.0,0.0
1695752217235,-0.28808594,-0.48632812,0.7861328,0.21875,-0.15625,-0.09375,0.0,0.0,0.0
1695752217293,-0.2919922,-0.48046875,0.7861328,-0.03125,-0.09375,-0.09375,0.0,0.0,0.0
1695752217323,-0.29003906,-0.48046875,0.7890625,0.09375,-0.15625,0.03125,0.0,0.0,0.0
1695752217356,-0.2919922,-0.48828125,0.7861328,-0.03125,-0.03125,0.0625,0.0,0.0,0.0
1695752217413,-0.2890625,-0.48828125,0.77734375,-0.09375,-0.03125,0.03125,0.0,0.0,0.0
1695752217443,-0.29003906,-0.48242188,0.7919922,-0.09375,-0.09375,-0.15625,0.0,0.0,0.0
1695752217474,-0.29882812,-0.47558594,0.7783203,0.09375,-0.15625,0.03125,0.0,0.0,0.0
1695752217533,-0.28710938,-0.4892578,0.78222656,0.09375,-0.28125,0.0625,0.0,0.0,0.0
1695752217562,-0.2890625,-0.48339844,0.7919922,0.03125,-0.21875,-0.15625,0.0,0.0,0.0
1695752217593,-0.27929688,-0.48535156,0.77246094,-0.15625,-0.15625,-0.03125,-0.875,-19.625,4.3125
1695752217653,-0.2861328,-0.48339844,0.78515625,0.03125,0.03125,-0.28125,0.0,0.0,0.0
1695752217683,-0.28320312,-0.48632812,0.78027344,-0.15625,0.15625,-0.03125,0.0,0.0,0.0
1695752217712,-0.29101562,-0.48242188,0.77734375,-0.03125,0.03125,-0.09375,0.0,0.0,0.0
1695752217771,-0.2919922,-0.48046875,0.7871094,-0.03125,-0.15625,0.03125,0.0,0.0,0.0
1695752217802,-0.29101562,-0.48339844,0.79003906,-0.03125,-0.28125,0.125,0.0,0.0,0.0
1695752217832,-0.28320312,-0.4921875,0.7910156,0.09375,-0.40625,0.25,0.0,0.0,0.0
1695752217892,-0.29003906,-0.48535156,0.78515625,-0.15625,-0.28125,0.125,0.0,0.0,0.0
1695752217923,-0.2841797,-0.4892578,0.7861328,-0.21875,0.21875,-0.09375,0.0,0.0,0.0
1695752217951,-0.2861328,-0.48339844,0.78808594,-0.15625,0.15625,0.03125,0.0,0.0,0.0
1695752218012,-0.28710938,-0.47851562,0.79785156,0.15625,0.03125,0.03125,0.0,0.0,0.0
1695752218042,-0.2919922,-0.48242188,0.7871094,0.09375,-0.15625,0.125,0.0,0.0,0.0
1695752218073,-0.28710938,-0.4951172,0.78125,0.03125,-0.09375,-0.03125,1.0625,-20.9375,5.8125
1695752218132,-0.2939453,-0.48828125,0.7841797,-0.03125,-0.03125,-0.03125,0.0,0.0,0.0
1695752218162,-0.2939453,-0.4873047,0.7890625,0.09375,-0.03125,-0.09375,0.0,0.0,0.0
1695752218194,-0.29296875,-0.49023438,0.79296875,-0.09375,0.09375,-0.09375,0.0,0.0,0.0
1695752218252,-0.2841797,-0.48632812,0.7792969,0.09375,-0.03125,-0.09375,0.0,0.0,0.0
1695752218312,-0.2939453,-0.49023438,0.7753906,-0.03125,0.03125,0.0625,0.0,0.0,0.0
1695752218315,-0.2861328,-0.4921875,0.7841797,0.03125,0.03125,-0.15625,0.0,0.0,0.0
1695752218373,-0.28320312,-0.48242188,0.7832031,-0.28125,0.03125,-0.03125,0.0,0.0,0.0
1695752218402,-0.2841797,-0.49023438,0.7871094,-0.03125,-0.03125,0.03125,0.0,0.0,0.0
1695752218432,-0.28710938,-0.49023438,0.7841797,0.21875,0.03125,0.03125,0.0,0.0,0.0
1695752218492,-0.29003906,-0.48632812,0.78808594,0.03125,-0.15625,-0.09375,0.0,0.0,0.0
1695752218522,-0.28222656,-0.48632812,0.7890625,0.15625,-0.15625,0.0625,0.0,0.0,0.0
1695752218553,-0.28808594,-0.49121094,0.7910156,0.03125,-0.03125,0.0625,0.0,0.0,0.0
1695752218613,-0.28808594,-0.49316406,0.7841797,0.03125,-0.03125,0.0625,0.75,-20.1875,6.0625
1695752218643,-0.2919922,-0.484375,0.78222656,0.09375,0.03125,0.03125,0.0,0.0,0.0
1695752218671,-0.29296875,-0.4892578,0.77441406,0.03125,0.09375,-0.15625,0.0,0.0,0.0
1695752218733,-0.29492188,-0.4814453,0.7792969,0.15625,0.15625,-0.21875,0.0,0.0,0.0
1695752218762,-0.29296875,-0.4892578,0.78125,0.09375,-0.09375,0.0625,0.0,0.0,0.0
1695752218792,-0.29882812,-0.4892578,0.7753906,0.21875,-0.28125,0.1875,0.0,0.0,0.0
1695752218852,-0.29003906,-0.49023438,0.78515625,0.15625,0.03125,0.0625,0.0,0.0,0.0
1695752218883,-0.28710938,-0.4921875,0.7841797,0.03125,-0.09375,0.03125,0.0,0.0,0.0
1695752218912,-0.28320312,-0.49023438,0.78125,0.15625,0.09375,0.0625,0.0,0.0,0.0
1695752218973,-0.29101562,-0.4873047,0.78027344,0.15625,0.15625,-0.09375,0.0,0.0,0.0
1695752219062,-0.2861328,-0.48242188,0.77441406,0.21875,-0.09375,-0.03125,0.0,0.0,0.0
1695752219066,-0.28125,-0.4794922,0.7763672,0.21875,-0.09375,0.03125,0.0,0.0,0.0
1695752219098,-0.2998047,-0.48828125,0.78808594,0.21875,-0.03125,-0.03125,1.0625,-20.5,4.75
1695752219122,-0.29003906,-0.49121094,0.7841797,0.34375,0.03125,-0.15625,0.0,0.0,0.0
1695752219153,-0.2890625,-0.4892578,0.7792969,0.15625,0.15625,-0.09375,0.0,0.0,0.0
1695752219214,-0.29589844,-0.49023438,0.7792969,0.34375,-0.21875,0.03125,0.0,0.0,0.0
1695752219243,-0.29492188,-0.4892578,0.8046875,0.15625,-0.09375,-0.03125,0.0,0.0,0.0
1695752219272,-0.28515625,-0.49121094,0.7792969,0.03125,-0.15625,0.1875,0.0,0.0,0.0
1695752219332,-0.2919922,-0.49121094,0.7861328,0.15625,-0.03125,0.125,0.0,0.0,0.0
1695752219363,-0.28515625,-0.4892578,0.79003906,0.28125,0.15625,-0.03125,0.0,0.0,0.0
1695752219393,-0.28027344,-0.49414062,0.78515625,0.21875,-0.09375,0.0625,0.0,0.0,0.0
1695752219482,-0.29785156,-0.48828125,0.7753906,0.21875,0.03125,-0.09375,0.0,0.0,0.0
1695752219486,-0.2890625,-0.49121094,0.78027344,0.34375,-0.15625,0.0625,0.0,0.0,0.0
1695752219512,-0.29101562,-0.49121094,0.7841797,0.34375,-0.21875,0.03125,0.0,0.0,0.0
1695752219574,-0.29003906,-0.48828125,0.78222656,0.09375,0.03125,-0.03125,0.0,0.0,0.0
1695752219604,-0.29101562,-0.4814453,0.7734375,0.34375,0.03125,0.03125,2.125,-20.9375,4.4375
1695752219632,-0.2939453,-0.4951172,0.78125,0.40625,0.09375,-0.09375,0.0,0.0,0.0
1695752219693,-0.29101562,-0.4921875,0.78027344,0.34375,-0.09375,0.0625,0.0,0.0,0.0
1695752219721,-0.29589844,-0.48632812,0.78027344,0.40625,-0.03125,-0.15625,0.0,0.0,0.0
1695752219752,-0.2919922,-0.48242188,0.7939453,0.15625,-0.03125,0.03125,0.0,0.0,0.0
1695752219812,-0.2890625,-0.4892578,0.7832031,0.28125,-0.15625,0.0625,0.0,0.0,0.0
1695752219842,-0.28808594,-0.48632812,0.7861328,0.15625,0.03125,-0.03125,0.0,0.0,0.0
1695752219872,-0.28710938,-0.4970703,0.80078125,0.21875,-0.03125,0.0625,0.0,0.0,0.0
1695752219934,-0.29785156,-0.4873047,0.79785156,0.15625,0.03125,0.1875,0.0,0.0,0.0
1695752219962,-0.29589844,-0.48632812,0.7841797,0.28125,0.09375,0.03125,0.0,0.0,0.0
1695752219992,-0.29296875,-0.49023438,0.7939453,0.28125,-0.15625,0.125,0.0,0.0,0.0
1695752220052,-0.2919922,-0.47851562,0.77734375,0.21875,-0.09375,-0.15625,0.0,0.0,0.0
1695752220082,-0.2890625,-0.48339844,0.7861328,0.28125,0.03125,0.0625,1.5,-18.4375,4.125
1695752220113,-0.29492188,-0.4814453,0.7988281,0.40625,0.03125,-0.09375,0.0,0.0,0.0
1695752220172,-0.29296875,-0.48339844,0.7753906,0.15625,-0.03125,0.03125,0.0,0.0,0.0
1695752220201,-0.28710938,-0.4765625,0.7871094,0.15625,0.03125,0.0625,0.0,0.0,0.0
1695752220231,-0.2919922,-0.4921875,0.7890625,0.09375,-0.03125,0.125,0.0,0.0,0.0
1695752220383,-0.2939453,-0.4873047,0.7910156,0.15625,-0.15625,0.0625,0.0,0.0,0.0
1695752220386,-0.28515625,-0.48339844,0.78222656,0.15625,0.15625,0.25,0.0,0.0,0.0
1695752220389,-0.30273438,-0.49023438,0.79296875,0.15625,-0.09375,0.1875,0.0,0.0,0.0
1695752220416,-0.2919922,-0.47851562,0.78125,0.28125,-0.21875,0.0625,0.0,0.0,0.0
1695752220445,-0.28515625,-0.48046875,0.7861328,0.09375,-0.09375,0.1875,0.0,0.0,0.0
1695752220474,-0.2861328,-0.49609375,0.78808594,0.09375,-0.09375,0.0625,0.0,0.0,0.0
1695752220531,-0.2841797,-0.48046875,0.78125,0.15625,0.15625,0.03125,0.0,0.0,0.0
1695752220592,-0.296875,-0.4921875,0.79785156,-0.15625,-0.03125,-0.09375,0.0,0.0,0.0
1695752220595,-0.29003906,-0.48339844,0.7753906,0.15625,0.03125,-0.03125,1.5,-20.1875,5.8125
1695752220652,-0.2841797,-0.48339844,0.7939453,-0.125,-0.0625,0.03125,0.0,0.0,0.0
1695752220681,-0.2939453,-0.48046875,0.79296875,-0.125,-0.125,-0.09375,0.0,0.0,0.0
1695752220712,-0.2939453,-0.49414062,0.79296875,-0.25,-0.25,-0.03125,0.0,0.0,0.0
1695752220771,-0.29101562,-0.48339844,0.7871094,-0.25,-0.1875,0.03125,0.0,0.0,0.0
1695752220803,-0.2841797,-0.4765625,0.7705078,-0.125,-0.0625,-0.09375,0.0,0.0,0.0
1695752220833,-0.2919922,-0.4814453,0.78222656,-0.375,0.0,-0.09375,0.0,0.0,0.0
1695752220891,-0.27929688,-0.48828125,0.7783203,-0.3125,-0.0625,-0.09375,0.0,0.0,0.0
1695752220922,-0.2919922,-0.4873047,0.7841797,-0.375,0.0625,0.09375,0.0,0.0,0.0
1695752220952,-0.29492188,-0.48632812,0.78125,-0.3125,0.0625,-0.03125,0.0,0.0,0.0
1695752221012,-0.28320312,-0.48632812,0.7792969,-0.5,0.0625,-0.09375,0.0,0.0,0.0
1695752221042,-0.296875,-0.48339844,0.7783203,-0.125,-0.0625,0.03125,0.0,0.0,0.0
1695752221073,-0.29589844,-0.48046875,0.7792969,-0.25,0.0625,-0.03125,0.75,-20.1875,4.4375
1695752221131,-0.29296875,-0.4892578,0.79003906,-0.0625,0.0625,-0.09375,0.0,0.0,0.0
1695752221163,-0.29589844,-0.49121094,0.77734375,-0.1875,0.0,-0.09375,0.0,0.0,0.0
1695752221191,-0.2890625,-0.47753906,0.7939453,-0.25,0.0,-0.09375,0.0,0.0,0.0
1695752221251,-0.2861328,-0.4892578,0.7783203,-0.1875,0.21875,-0.09375,0.0,0.0,0.0
1695752221282,-0.2919922,-0.48632812,0.78808594,-0.25,0.21875,-0.03125,0.0,0.0,0.0
1695752221341,-0.28710938,-0.48828125,0.7919922,-0.25,0.0625,-0.09375,0.0,0.0,0.0
1695752221372,-0.2890625,-0.49316406,0.7861328,-0.125,-0.0625,0.09375,0.0,0.0,0.0
1695752221401,-0.28710938,-0.48828125,0.78515625,-0.3125,0.0,-0.09375,0.0,0.0,0.0
1695752221432,-0.2861328,-0.48242188,0.7792969,-0.3125,0.0,-0.03125,0.0,0.0,0.0
1695752221491,-0.29296875,-0.48242188,0.7871094,-0.3125,0.125,-0.09375,0.0,0.0,0.0
1695752221523,-0.29101562,-0.48828125,0.7919922,-0.25,0.0625,0.09375,0.0,0.0,0.0
1695752221551,-0.29785156,-0.48632812,0.7753906,-0.125,-0.125,-0.03125,0.0,0.0,0.0
1695752221612,-0.29101562,-0.49023438,0.7783203,-0.0625,0.0625,-0.03125,2.6875,-20.8125,4.875
1695752221642,-0.28808594,-0.4892578,0.79003906,-0.1875,-0.0625,0.03125,0.0,0.0,0.0
1695752221672,-0.28808594,-0.48242188,0.7871094,-0.125,-0.125,-0.15625,0.0,0.0,0.0
1695752221732,-0.28808594,-0.4873047,0.7890625,-0.0625,-0.0625,-0.03125,0.0,0.0,0.0
1695752221762,-0.2861328,-0.48046875,0.7871094,-0.3125,0.0625,0.03125,0.0,0.0,0.0
1695752221792,-0.28808594,-0.4892578,0.7753906,-0.25,-0.0625,0.03125,0.0,0.0,0.0
1695752221851,-0.2861328,-0.4873047,0.7861328,-0.0625,0.125,0.09375,0.0,0.0,0.0
1695752221881,-0.29101562,-0.4921875,0.77441406,-0.125,0.15625,-0.15625,0.0,0.0,0.0
1695752221912,-0.30371094,-0.49316406,0.7792969,-0.125,0.0625,-0.15625,0.0,0.0,0.0
1695752221972,-0.2939453,-0.48632812,0.78222656,-0.0625,0.15625,-0.21875,0.0,0.0,0.0
1695752222002,-0.29003906,-0.4921875,0.79785156,0.0,0.0625,0.03125,0.0,0.0,0.0
1695752222032,-0.2919922,-0.4814453,0.7910156,-0.0625,0.0,-0.28125,0.0,0.0,0.0
1695752222092,-0.29003906,-0.47851562,0.8027344,-0.0625,-0.0625,-0.03125,1.8125,-19.4375,4.125
1695752222123,-0.28515625,-0.48046875,0.7841797,-0.0625,-0.0625,0.03125,0.0,0.0,0.0
1695752222152,-0.28808594,-0.48339844,0.7871094,-0.125,-0.125,-0.09375,0.0,0.0,0.0
1695752222212,-0.2890625,-0.48632812,0.79296875,-0.5,0.0,0.03125,0.0,0.0,0.0
1695752222242,-0.2890625,-0.49023438,0.8017578,-0.0625,0.125,-0.03125,0.0,0.0,0.0
1695752222272,-0.29492188,-0.484375,0.78222656,-0.0625,0.15625,-0.03125,0.0,0.0,0.0
1695752222331,-0.2939453,-0.48339844,0.78027344,-0.375,0.0625,0.28125,0.0,0.0,0.0
1695752222363,-0.2861328,-0.4921875,0.78808594,0.125,-0.1875,0.03125,0.0,0.0,0.0
1695752222394,-0.28515625,-0.48242188,0.79003906,-0.25,0.0,-0.03125,0.0,0.0,0.0
1695752222452,-0.2861328,-0.48339844,0.7949219,-0.1875,0.125,-0.34375,0.0,0.0,0.0
1695752222484,-0.2939453,-0.48632812,0.78027344,0.1875,0.21875,-0.21875,0.0,0.0,0.0
1695752222514,-0.29003906,-0.49023438,0.7832031,0.0,0.125,-0.21875,0.0,0.0,0.0
1695752222572,-0.29003906,-0.484375,0.7910156,0.1875,-0.125,-0.03125,0.0,0.0,0.0
1695752222602,-0.29296875,-0.48339844,0.78027344,0.25,-0.25,-0.03125,2.375,-20.8125,4.5625
1695752222632,-0.28222656,-0.4873047,0.79785156,0.3125,-0.4375,0.15625,0.0,0.0,0.0
1695752222692,-0.2939453,-0.49316406,0.78027344,0.0625,-0.0625,0.03125,0.0,0.0,0.0
1695752222723,-0.28320312,-0.49023438,0.78515625,0.0625,0.0625,-0.21875,0.0,0.0,0.0
1695752222752,-0.29296875,-0.4794922,0.78515625,-0.1875,0.0625,0.03125,0.0,0.0,0.0
1695752222812,-0.2861328,-0.48535156,0.79296875,0.0,0.0,0.03125,0.0,0.0,0.0
1695752222901,-0.2939453,-0.49121094,0.78222656,0.0,0.0625,0.15625,0.0,0.0,0.0
1695752222904,-0.2939453,-0.48828125,0.7753906,0.125,0.0625,0.03125,0.0,0.0,0.0
1695752222932,-0.29296875,-0.4814453,0.78125,-0.125,0.0,0.15625,0.0,0.0,0.0
1695752222962,-0.30078125,-0.484375,0.79003906,-0.0625,0.0,-0.15625,0.0,0.0,0.0
1695752222993,-0.29589844,-0.49023438,0.7949219,0.125,-0.0625,-0.03125,0.0,0.0,0.0
1695752223084,-0.2919922,-0.4892578,0.7832031,0.1875,0.0,-0.03125,0.0,0.0,0.0
1695752223090,-0.2890625,-0.49121094,0.78808594,0.0625,-0.0625,-0.09375,1.9375,-20.8125,5.625
1695752223113,-0.29003906,-0.49023438,0.7792969,0.25,0.0625,-0.15625,0.0,0.0,0.0
1695752223171,-0.2939453,-0.49609375,0.78808594,0.0625,0.28125,-0.03125,0.0,0.0,0.0
1695752223203,-0.2783203,-0.48339844,0.79003906,0.0,0.125,-0.15625,0.0,0.0,0.0
1695752223240,-0.2890625,-0.49023438,0.78515625,0.125,0.15625,-0.15625,0.0,0.0,0.0
1695752223292,-0.2861328,-0.47851562,0.7939453,-0.0625,0.0625,0.15625,0.0,0.0,0.0
1695752223322,-0.29492188,-0.48046875,0.78808594,0.0,0.0625,-0.03125,0.0,0.0,0.0
1695752223352,-0.2919922,-0.484375,0.7890625,-0.25,0.0,0.03125,0.0,0.0,0.0
1695752223414,-0.2919922,-0.4892578,0.796875,-0.1875,0.0,-0.03125,0.0,0.0,0.0
1695752223442,-0.296875,-0.484375,0.7861328,-0.125,0.0,0.09375,0.0,0.0,0.0
1695752223472,-0.2939453,-0.484375,0.78027344,0.0625,0.0625,0.09375,0.0,0.0,0.0
1695752223532,-0.29589844,-0.47753906,0.7890625,-0.0625,0.0,-0.03125,0.0,0.0,0.0
1695752223562,-0.2861328,-0.484375,0.78808594,0.125,0.0625,0.03125,0.0,0.0,0.0
1695752223622,-0.28125,-0.4814453,0.7988281,0.0,-0.125,-0.03125,2.125,-19.9375,5.0625
1695752223653,-0.29003906,-0.48046875,0.7919922,-0.0625,0.0625,-0.03125,0.0,0.0,0.0
1695752223682,-0.29003906,-0.4814453,0.79589844,0.0,-0.0625,0.03125,0.0,0.0,0.0
1695752223714,-0.29296875,-0.49023438,0.7910156,-0.125,0.0625,-0.09375,0.0,0.0,0.0
1695752223775,-0.29003906,-0.48046875,0.78222656,-0.25,-0.125,0.09375,0.0,0.0,0.0
1695752223803,-0.296875,-0.4794922,0.7949219,-0.1875,-0.1875,0.03125,0.0,0.0,0.0
1695752223832,-0.29101562,-0.48339844,0.79003906,-0.0625,-0.3125,0.15625,0.0,0.0,0.0
1695752223892,-0.28515625,-0.4814453,0.7636719,-0.125,-0.25,0.03125,0.0,0.0,0.0
1695752223922,-0.2919922,-0.4814453,0.7910156,-0.1875,-0.0625,-0.09375,0.0,0.0,0.0
1695752223954,-0.2861328,-0.4814453,0.7783203,-0.375,0.0,-0.21875,0.0,0.0,0.0
1695752224013,-0.28222656,-0.48535156,0.78515625,-0.125,-0.125,-0.09375,0.0,0.0,0.0
1695752224072,-0.29296875,-0.4814453,0.7998047,-0.4375,0.0,0.03125,0.0,0.0,0.0
1695752224075,-0.28808594,-0.4892578,0.7753906,-0.375,-0.0625,-0.21875,1.5,-21.5625,6.0625
1695752224162,-0.28125,-0.4921875,0.7949219,-0.3125,0.21875,-0.28125,0.0,0.0,0.0
1695752224166,-0.29101562,-0.49121094,0.78222656,-0.375,0.21875,-0.09375,0.0,0.0,0.0
1695752224192,-0.2841797,-0.48535156,0.7890625,-0.1875,-0.25,0.21875,0.0,0.0,0.0
1695752224252,-0.28320312,-0.48242188,0.78808594,-0.4375,-0.125,0.15625,0.0,0.0,0.0
1695752224282,-0.28222656,-0.4873047,0.78027344,-0.5,-0.125,-0.03125,0.0,0.0,0.0
1695752224312,-0.2919922,-0.48046875,0.7753906,-0.125,0.15625,-0.09375,0.0,0.0,0.0
1695752224373,-0.2998047,-0.48242188,0.78808594,-0.625,0.21875,-0.21875,0.0,0.0,0.0
1695752224402,-0.29589844,-0.49023438,0.7832031,-0.3125,-0.0625,-0.21875,0.0,0.0,0.0
1695752224432,-0.29492188,-0.48535156,0.7890625,-0.125,0.0,-0.03125,0.0,0.0,0.0
1695752224493,-0.28320312,-0.48242188,0.7949219,-0.1875,-0.1875,-0.03125,0.0,0.0,0.0
1695752224522,-0.2890625,-0.49121094,0.7910156,-0.125,0.0,-0.09375,0.0,0.0,0.0
1695752224552,-0.28320312,-0.49023438,0.7714844,0.125,0.0625,-0.125,0.0,0.0,0.0
1695752224613,-0.28808594,-0.49023438,0.7792969,0.0625,0.0625,0.0,0.625,-21.125,4.875
1695752224642,-0.2890625,-0.48828125,0.7919922,0.21875,0.125,-0.125,0.0,0.0,0.0
1695752224672,-0.2939453,-0.48632812,0.77441406,0.125,0.25,0.0,0.0,0.0,0.0
1695752224732,-0.2919922,-0.4921875,0.78222656,0.125,0.25,-0.25,0.0,0.0,0.0
1695752224761,-0.2919922,-0.4921875,0.79003906,0.46875,0.25,-0.1875,0.0,0.0,0.0
1695752224792,-0.2861328,-0.48242188,0.7910156,0.125,0.125,-0.0625,0.0,0.0,0.0
1695752224855,-0.2861328,-0.48242188,0.77246094,0.0625,-0.0625,0.0,0.0,0.0,0.0
1695752224882,-0.29101562,-0.4873047,0.7919922,0.125,-0.1875,0.125,0.0,0.0,0.0
1695752224912,-0.28808594,-0.49023438,0.79296875,-0.125,-0.125,0.0,0.0,0.0,0.0
1695752224975,-0.2890625,-0.49023438,0.7910156,-0.1875,-0.125,0.0,0.0,0.0,0.0
1695752225004,-0.29296875,-0.4814453,0.78027344,-0.125,0.0625,-0.0625,0.0,0.0,0.0
1695752225032,-0.29003906,-0.4921875,0.7861328,-0.0625,0.1875,-0.0625,0.0,0.0,0.0
1695752225094,-0.2861328,-0.48339844,0.7841797,-0.25,-0.0625,0.0625,1.1875,-20.0625,4.3125
1695752225152,-0.28808594,-0.4970703,0.79785156,-0.1875,-0.0625,0.0,0.0,0.0,0.0
1695752225155,-0.2919922,-0.48632812,0.7753906,-0.0625,0.0625,0.0625,0.0,0.0,0.0
1695752225212,-0.29101562,-0.4951172,0.78515625,0.0,0.125,0.0625,0.0,0.0,0.0
1695752225243,-0.28515625,-0.4873047,0.78125,0.125,0.125,-0.125,0.0,0.0,0.0
1695752225272,-0.2890625,-0.47753906,0.7753906,0.0625,0.0,-0.0625,0.0,0.0,0.0
1695752225334,-0.2841797,-0.4921875,0.7832031,0.21875,0.0,-0.1875,0.0,0.0,0.0
1695752225362,-0.28808594,-0.4794922,0.7763672,0.125,-0.0625,-0.1875,0.0,0.0,0.0
1695752225393,-0.27929688,-0.47460938,0.7783203,0.125,-0.125,0.125,0.0,0.0,0.0
1695752225452,-0.29492188,-0.4921875,0.796875,0.53125,0.0625,0.0625,0.0,0.0,0.0
1695752225482,-0.29296875,-0.49414062,0.78027344,-0.625,0.0,-0.1875,0.0,0.0,0.0
1695752225513,-0.27734375,-0.48632812,0.7861328,0.40625,0.0,0.0,0.0,0.0,0.0
1695752225572,-0.2939453,-0.4892578,0.79296875,0.53125,0.1875,0.28125,0.0,0.0,0.0
1695752225603,-0.296875,-0.49023438,0.7939453,-0.25,0.125,0.0625,1.8125,-19.9375,6.0625
1695752225635,-0.29003906,-0.48828125,0.7890625,0.65625,-0.59375,0.0625,0.0,0.0,0.0
1695752225693,-0.28710938,-0.48242188,0.7705078,0.28125,0.1875,-0.0625,0.0,0.0,0.0
1695752225722,-0.29785156,-0.48632812,0.78515625,0.15625,0.125,-0.1875,0.0,0.0,0.0
1695752225752,-0.29101562,-0.48339844,0.7949219,0.71875,-0.125,-0.1875,0.0,0.0,0.0
1695752225812,-0.29003906,-0.484375,0.7841797,-0.25,0.25,-0.25,0.0,0.0,0.0
1695752225842,-0.28320312,-0.4814453,0.78808594,0.21875,-0.03125,0.15625,0.0,0.0,0.0
1695752225903,-0.29003906,-0.48632812,0.7939453,0.125,0.0,0.15625,0.0,0.0,0.0
1695752225933,-0.2939453,-0.48632812,0.78808594,-0.1875,-0.21875,0.1875,0.0,0.0,0.0
1695752225962,-0.28515625,-0.4921875,0.7714844,0.0,-0.15625,-0.03125,0.0,0.0,0.0
1695752225992,-0.2919922,-0.48339844,0.78222656,-0.125,0.0625,0.15625,0.0,0.0,0.0
1695752226054,-0.2919922,-0.484375,0.78125,0.0,0.0,0.1875,0.0,0.0,0.0
1695752226084,-0.29785156,-0.49023438,0.7832031,-0.0625,-0.09375,0.09375,1.5,-20.1875,5.0625
1695752226112,-0.28710938,-0.4892578,0.7939453,-0.1875,-0.03125,0.09375,0.0,0.0,0.0
1695752226173,-0.29003906,-0.4873047,0.77734375,0.28125,0.0,-0.09375,0.0,0.0,0.0
1695752226202,-0.28710938,-0.4794922,0.7861328,0.0625,0.125,-0.09375,0.0,0.0,0.0
1695752226233,-0.2919922,-0.4873047,0.7734375,0.28125,-0.09375,-0.09375,0.0,0.0,0.0
1695752226292,-0.2919922,-0.48632812,0.7832031,0.1875,-0.03125,-0.03125,0.0,0.0,0.0
1695752226324,-0.28710938,-0.48632812,0.78808594,0.34375,-0.21875,0.03125,0.0,0.0,0.0
1695752226352,-0.28320312,-0.48046875,0.78125,0.28125,-0.09375,0.15625,0.0,0.0,0.0
1695752226443,-0.28808594,-0.48632812,0.7763672,0.1875,-0.03125,0.09375,0.0,0.0,0.0
1695752226445,-0.2939453,-0.48535156,0.79296875,0.0625,0.0,0.09375,0.0,0.0,0.0
1695752226473,-0.2939453,-0.484375,0.79003906,0.0625,0.0625,0.03125,0.0,0.0,0.0
1695752226533,-0.29296875,-0.4873047,0.7861328,-0.0625,0.25,0.09375,0.0,0.0,0.0
1695752226562,-0.2939453,-0.48632812,0.7910156,0.0,0.125,0.03125,0.0,0.0,0.0
1695752226593,-0.29296875,-0.484375,0.7783203,-0.0625,-0.09375,-0.03125,0.875,-21.125,5.625
1695752226652,-0.2861328,-0.4814453,0.7871094,0.0,-0.03125,0.09375,0.0,0.0,0.0
1695752226742,-0.2919922,-0.4892578,0.7753906,-0.0625,-0.28125,0.1875,0.0,0.0,0.0
1695752226745,-0.29492188,-0.49414062,0.7871094,0.0625,-0.03125,0.15625,0.0,0.0,0.0
1695752226774,-0.29003906,-0.4951172,0.7792969,-0.0625,-0.15625,0.03125,0.0,0.0,0.0
1695752226803,-0.29101562,-0.48535156,0.7919922,0.0,0.0625,0.1875,0.0,0.0,0.0
1695752226832,-0.28515625,-0.4814453,0.7871094,0.0,-0.03125,0.09375,0.0,0.0,0.0
1695752226892,-0.29296875,-0.48828125,0.80371094,-0.1875,-0.15625,-0.03125,0.0,0.0,0.0
1695752226927,-0.28515625,-0.48535156,0.78515625,0.0,-0.09375,-0.09375,0.0,0.0,0.0
1695752226955,-0.29003906,-0.4794922,0.7841797,-0.125,-0.03125,-0.03125,0.0,0.0,0.0
1695752227013,-0.29492188,-0.4892578,0.7919922,-0.125,-0.03125,0.03125,0.0,0.0,0.0
1695752227044,-0.2841797,-0.48339844,0.7763672,-0.0625,-0.28125,-0.09375,0.0,0.0,0.0
1695752227073,-0.2919922,-0.49121094,0.7832031,-0.25,-0.28125,0.03125,1.5,-20.1875,5.8125
1695752227133,-0.2939453,-0.4765625,0.7861328,-0.375,-0.03125,-0.09375,0.0,0.0,0.0
1695752227162,-0.28710938,-0.48632812,0.78808594,0.0,0.0625,-0.03125,0.0,0.0,0.0
1695752227193,-0.2890625,-0.48242188,0.7753906,-0.1875,-0.09375,-0.03125,0.0,0.0,0.0
1695752227254,-0.2861328,-0.4892578,0.79296875,-0.3125,-0.34375,-0.03125,0.0,0.0,0.0
1695752227284,-0.29296875,-0.47558594,0.7832031,-0.0625,-0.46875,-0.03125,0.0,0.0,0.0
1695752227312,-0.29101562,-0.48828125,0.79003906,-0.125,-0.15625,-0.09375,0.0,0.0,0.0
1695752227372,-0.2841797,-0.48242188,0.77246094,-0.1875,-0.03125,-0.21875,0.0,0.0,0.0
1695752227433,-0.28515625,-0.48535156,0.79003906,-0.3125,0.0,-0.15625,0.0,0.0,0.0
1695752227437,-0.2890625,-0.48046875,0.7753906,-0.1875,-0.09375,-0.21875,0.0,0.0,0.0
1695752227491,-0.2919922,-0.49023438,0.78027344,-0.1875,-0.09375,-0.21875,0.0,0.0,0.0
1695752227522,-0.296875,-0.484375,0.7832031,-0.25,-0.15625,-0.09375,0.0,0.0,0.0
1695752227552,-0.29101562,-0.484375,0.77246094,-0.3125,-0.21875,-0.09375,0.0,0.0,0.0
1695752227613,-0.29101562,-0.4921875,0.79003906,-0.375,0.0625,-0.15625,1.1875,-20.0625,4.3125
1695752227643,-0.29492188,-0.484375,0.7783203,-0.375,-0.03125,0.03125,0.0,0.0,0.0
1695752227672,-0.29785156,-0.4921875,0.7841797,-0.0625,-0.03125,-0.03125,0.0,0.0,0.0
1695752227732,-0.28808594,-0.4873047,0.78027344,-0.3125,0.0625,-0.21875,0.0,0.0,0.0
1695752227763,-0.28710938,-0.49316406,0.78125,-0.375,0.0625,-0.03125,0.0,0.0,0.0
1695752227793,-0.29003906,-0.4814453,0.7910156,-0.125,0.1875,-0.21875,0.0,0.0,0.0
1695752227852,-0.28320312,-0.48046875,0.78515625,-0.1875,0.0625,-0.21875,0.0,0.0,0.0
1695752227882,-0.2939453,-0.4873047,0.78027344,-0.0625,-0.15625,-0.09375,0.0,0.0,0.0
1695752227914,-0.28222656,-0.484375,0.78125,-0.1875,-0.09375,-0.03125,0.0,0.0,0.0
1695752228003,-0.2861328,-0.48535156,0.79003906,-0.4375,-0.09375,-0.15625,0.0,0.0,0.0
1695752228005,-0.29101562,-0.4892578,0.7714844,-0.375,0.125,-0.15625,0.0,0.0,0.0
1695752228062,-0.28222656,-0.48046875,0.78515625,-0.0625,0.125,-0.15625,0.0,0.0,0.0
1695752228092,-0.29785156,-0.48535156,0.7871094,-0.25,-0.03125,0.03125,1.1875,-20.375,5.3125
1695752228122,-0.29882812,-0.4873047,0.78027344,-0.0625,0.0,-0.15625,0.0,0.0,0.0
1695752228183,-0.29101562,-0.4921875,0.7832031,0.0,-0.15625,0.09375,0.0,0.0,0.0
1695752228212,-0.29101562,-0.4892578,0.7939453,0.0,-0.09375,-0.03125,0.0,0.0,0.0
1695752228243,-0.28320312,-0.4921875,0.80371094,-0.3125,-0.03125,-0.03125,0.0,0.0,0.0
1695752228272,-0.28515625,-0.48242188,0.77441406,-0.0625,-0.09375,-0.09375,0.0,0.0,0.0
1695752228332,-0.2939453,-0.49121094,0.78222656,0.0625,-0.15625,-0.15625,0.0,0.0,0.0
1695752228362,-0.2861328,-0.49023438,0.78808594,-0.1875,0.0625,-0.03125,0.0,0.0,0.0
1695752228394,-0.28808594,-0.48339844,0.7734375,-0.0625,-0.09375,-0.15625,0.0,0.0,0.0
1695752228452,-0.2890625,-0.48046875,0.77734375,-0.0625,-0.03125,-0.03125,0.0,0.0,0.0
1695752228482,-0.29296875,-0.48828125,0.78222656,0.0,0.125,0.0,0.0,0.0,0.0
1695752228513,-0.2861328,-0.484375,0.79589844,0.09375,-0.125,0.0625,0.0,0.0,0.0
1695752228572,-0.28808594,-0.49316406,0.7783203,0.09375,0.125,0.0625,0.0,0.0,0.0
1695752228602,-0.29003906,-0.49023438,0.7890625,0.09375,0.0625,0.0,0.3125,-20.1875,3.375
1695752228634,-0.296875,-0.49121094,0.78027344,0.09375,0.0,0.0625,0.0,0.0,0.0
1695752228692,-0.30273438,-0.4892578,0.77441406,0.15625,0.0625,0.1875,0.0,0.0,0.0
1695752228724,-0.28808594,-0.4873047,0.7753906,0.03125,-0.0625,0.0625,0.0,0.0,0.0
1695752228752,-0.29492188,-0.4873047,0.7783203,0.03125,-0.125,0.0625,0.0,0.0,0.0
1695752228813,-0.28808594,-0.49023438,0.8027344,0.21875,0.25,0.125,0.0,0.0,0.0
1695752228842,-0.2919922,-0.4892578,0.78222656,0.15625,-0.125,0.125,0.0,0.0,0.0
1695752228873,-0.296875,-0.4892578,0.78222656,0.15625,0.0625,0.0625,0.0,0.0,0.0
1695752228932,-0.2861328,-0.4892578,0.78125,0.09375,-0.0625,0.125,0.0,0.0,0.0
1695752228962,-0.29492188,-0.48828125,0.7783203,0.21875,0.0625,-0.0625,0.0,0.0,0.0
1695752228993,-0.29003906,-0.48632812,0.78515625,0.09375,-0.0625,-0.0625,0.0,0.0,0.0
1695752229053,-0.28125,-0.49902344,0.7939453,0.28125,0.0,-0.0625,0.0,0.0,0.0
1695752229082,-0.28222656,-0.4951172,0.7861328,0.28125,-0.0625,0.1875,0.75,-20.5,4.4375
1695752229112,-0.2890625,-0.48632812,0.78222656,0.28125,-0.0625,0.0625,0.0,0.0,0.0
1695752229172,-0.28222656,-0.4892578,0.7753906,0.09375,-0.0625,0.125,0.0,0.0,0.0
1695752229203,-0.2861328,-0.4814453,0.7841797,0.09375,-0.125,0.125,0.0,0.0,0.0
1695752229233,-0.28515625,-0.48828125,0.7871094,0.09375,0.0,0.0625,0.0,0.0,0.0
1695752229291,-0.29003906,-0.47851562,0.7841797,0.09375,-0.125,0.125,0.0,0.0,0.0
1695752229323,-0.2841797,-0.484375,0.78515625,0.21875,0.1875,0.125,0.0,0.0,0.0
1695752229355,-0.29003906,-0.4873047,0.7841797,0.34375,0.0625,0.125,0.0,0.0,0.0
1695752229411,-0.29003906,-0.48632812,0.78222656,0.28125,-0.0625,0.125,0.0,0.0,0.0
1695752229441,-0.29296875,-0.48828125,0.78027344,0.21875,0.0,-0.0625,0.0,0.0,0.0
1695752229472,-0.2939453,-0.4892578,0.7871094,0.34375,-0.0625,0.0625,0.0,0.0,0.0
1695752229532,-0.2861328,-0.48242188,0.7890625,0.28125,-0.0625,0.0625,0.0,0.0,0.0
1695752229562,-0.28320312,-0.4873047,0.7832031,0.28125,0.1875,-0.0625,0.0,0.0,0.0
1695752229592,-0.28027344,-0.4892578,0.7832031,0.09375,-0.125,0.0625,2.125,-20.5,4.75
1695752229652,-0.29492188,-0.4814453,0.7871094,0.28125,0.0625,0.125,0.0,0.0,0.0
1695752229715,-0.2939453,-0.48339844,0.78808594,-0.0625,-0.125,0.0625,0.0,0.0,0.0
1695752229718,-0.2890625,-0.4951172,0.7832031,0.21875,0.0625,0.0625,0.0,0.0,0.0
1695752229773,-0.2939453,-0.48828125,0.79003906,0.09375,0.25,0.0625,0.0,0.0,0.0
1695752229834,-0.2890625,-0.4873047,0.7949219,0.15625,-0.0625,0.1875,0.0,0.0,0.0
1695752229837,-0.28808594,-0.4873047,0.7861328,0.09375,-0.0625,0.1875,0.0,0.0,0.0
1695752229893,-0.2841797,-0.4873047,0.79003906,0.09375,-0.125,0.125,0.0,0.0,0.0
1695752229922,-0.29785156,-0.484375,0.79296875,0.03125,0.25,0.0,0.0,0.0,0.0
1695752229952,-0.29296875,-0.47851562,0.7949219,-0.0625,0.125,0.0625,0.0,0.0,0.0
1695752230012,-0.2890625,-0.48046875,0.7939453,0.15625,-0.0625,0.0,0.0,0.0,0.0
1695752230042,-0.2841797,-0.48046875,0.78222656,0.09375,0.0,0.3125,0.0,0.0,0.0
1695752230072,-0.27246094,-0.48828125,0.7792969,0.21875,-0.25,0.0,1.5,-20.5,4.4375
1695752230132,-0.27929688,-0.47265625,0.78515625,0.09375,-0.1875,0.125,0.0,0.0,0.0
1695752230162,-0.29296875,-0.48632812,0.7939453,0.09375,-0.125,0.1875,0.0,0.0,0.0
1695752230192,-0.28808594,-0.48242188,0.796875,0.09375,-0.1875,0.0625,0.0,0.0,0.0
1695752230252,-0.2861328,-0.48242188,0.78027344,-0.1875,0.0625,0.0,0.0,0.0,0.0
1695752230282,-0.3017578,-0.4794922,0.78808594,-0.25,0.0,-0.125,0.0,0.0,0.0
1695752230313,-0.29003906,-0.4814453,0.8076172,-0.0625,0.0,-0.0625,0.0,0.0,0.0
1695752230372,-0.2890625,-0.48242188,0.78808594,-0.25,0.0,-0.125,0.0,0.0,0.0
1695752230402,-0.2998047,-0.4873047,0.7861328,0.03125,-0.125,-0.0625,0.0,0.0,0.0
1695752230462,-0.29101562,-0.47851562,0.79785156,-0.0625,0.0625,0.0,0.0,0.0,0.0
1695752230492,-0.29101562,-0.4794922,0.7871094,-0.125,0.0,0.0625,0.0,0.0,0.0
1695752230584,-0.28320312,-0.4921875,0.77441406,-0.125,0.0,0.0625,0.0,0.0,0.0
1695752230588,-0.29296875,-0.48632812,0.78027344,-0.1875,-0.0625,0.0625,0.0,0.0,0.0
1695752230614,-0.29003906,-0.4814453,0.7939453,-0.125,0.0,0.125,1.9375,-20.375,4.5625
1695752230643,-0.29003906,-0.4921875,0.7832031,-0.0625,0.125,-0.125,0.0,0.0,0.0
1695752230672,-0.29589844,-0.49023438,0.7871094,-0.3125,0.1875,0.0625,0.0,0.0,0.0
1695752230733,-0.29101562,-0.48828125,0.78222656,-0.25,0.0,-0.0625,0.0,0.0,0.0
1695752230765,-0.2861328,-0.4921875,0.7841797,-0.25,0.0,0.1875,0.0,0.0,0.0
1695752230792,-0.2939453,-0.48632812,0.7841797,0.0,-0.125,0.0,0.0,0.0,0.0
1695752230852,-0.30273438,-0.4814453,0.7871094,-0.1875,0.125,0.125,0.0,0.0,0.0
1695752230883,-0.29785156,-0.4892578,0.7783203,0.0,0.0,0.0,0.0,0.0,0.0
1695752230911,-0.29589844,-0.49414062,0.7949219,-0.0625,0.1875,-0.1875,0.0,0.0,0.0
1695752230974,-0.28710938,-0.4873047,0.78027344,-0.1875,0.1875,-0.1875,0.0,0.0,0.0
1695752231002,-0.2890625,-0.48339844,0.7861328,0.15625,0.0,-0.0625,0.0,0.0,0.0
1695752231032,-0.29101562,-0.49121094,0.7871094,0.09375,-0.0625,0.0625,0.0,0.0,0.0
1695752231092,-0.2861328,-0.49414062,0.796875,-0.0625,-0.0625,-0.0625,1.5,-21.5625,4.125
1695752231123,-0.2919922,-0.49023438,0.78027344,0.09375,-0.0625,0.03125,0.0,0.0,0.0
1695752231154,-0.29101562,-0.47851562,0.7919922,-0.09375,0.0,0.15625,0.0,0.0,0.0
1695752231213,-0.2998047,-0.49609375,0.7919922,0.03125,0.0625,0.03125,0.0,0.0,0.0
1695752231243,-0.28710938,-0.48339844,0.78808594,0.15625,-0.0625,0.09375,0.0,0.0,0.0
1695752231271,-0.29003906,-0.48242188,0.78515625,0.15625,-0.1875,0.03125,0.0,0.0,0.0
1695752231335,-0.29101562,-0.4951172,0.7871094,0.21875,0.0625,-0.03125,0.0,0.0,0.0
1695752231361,-0.29101562,-0.49023438,0.7763672,0.03125,0.15625,-0.09375,0.0,0.0,0.0
1695752231392,-0.296875,-0.4892578,0.76953125,0.09375,0.0,-0.03125,0.0,0.0,0.0
1695752231452,-0.2919922,-0.48632812,0.79296875,0.09375,-0.125,-0.03125,0.0,0.0,0.0
1695752231483,-0.29589844,-0.49316406,0.79785156,0.03125,-0.0625,0.21875,0.0,0.0,0.0
1695752231512,-0.2861328,-0.48632812,0.7890625,0.15625,0.0625,-0.15625,0.0,0.0,0.0
1695752231572,-0.28320312,-0.49023438,0.78222656,0.15625,0.125,-0.09375,0.0,0.0,0.0
1695752231602,-0.29101562,-0.48242188,0.7949219,0.3125,0.15625,-0.03125,1.0625,-21.25,4.125
1695752231631,-0.28515625,-0.484375,0.7685547,0.15625,-0.1875,0.09375,0.0,0.0,0.0
1695752231692,-0.29492188,-0.484375,0.7861328,0.15625,-0.25,0.15625,0.0,0.0,0.0
1695752231755,-0.29589844,-0.47558594,0.78222656,-0.03125,-0.125,-0.03125,0.0,0.0,0.0
1695752231758,-0.29492188,-0.49121094,0.7832031,0.09375,0.0625,-0.09375,0.0,0.0,0.0
1695752231842,-0.28710938,-0.484375,0.7890625,0.15625,0.0625,-0.15625,0.0,0.0,0.0
1695752231845,-0.29101562,-0.48632812,0.7861328,0.15625,0.0,-0.09375,0.0,0.0,0.0
1695752231872,-0.2861328,-0.48046875,0.7861328,0.3125,-0.0625,-0.03125,0.0,0.0,0.0
1695752231933,-0.29003906,-0.48632812,0.78515625,0.375,-0.0625,0.15625,0.0,0.0,0.0
1695752231991,-0.29101562,-0.4951172,0.7705078,0.4375,-0.0625,0.09375,0.0,0.0,0.0
1695752231994,-0.2919922,-0.4892578,0.76953125,0.3125,0.0,-0.03125,0.0,0.0,0.0
1695752232052,-0.2841797,-0.48046875,0.79296875,0.21875,0.15625,-0.03125,0.0,0.0,0.0
1695752232082,-0.28710938,-0.4892578,0.79003906,0.375,-0.0625,0.15625,0.75,-20.1875,3.6875
1695752232112,-0.28125,-0.48828125,0.78222656,0.375,0.125,0.09375,0.0,0.0,0.0
1695752232173,-0.29296875,-0.48535156,0.7890625,0.15625,-0.125,0.34375,0.0,0.0,0.0
1695752232203,-0.2919922,-0.48242188,0.78808594,0.375,0.0,0.21875,0.0,0.0,0.0
1695752232234,-0.29296875,-0.4892578,0.78222656,0.375,-0.3125,0.09375,0.0,0.0,0.0
1695752232293,-0.28710938,-0.48535156,0.7832031,0.15625,0.0625,-0.15625,0.0,0.0,0.0
1695752232324,-0.2939453,-0.484375,0.7871094,0.15625,0.0,0.03125,0.0,0.0,0.0
1695752232353,-0.2919922,-0.48828125,0.77246094,0.15625,0.0,0.03125,0.0,0.0,0.0
1695752232412,-0.296875,-0.49121094,0.78125,0.15625,0.0,-0.03125,0.0,0.0,0.0
1695752232443,-0.28808594,-0.48242188,0.7841797,0.15625,-0.125,0.09375,0.0,0.0,0.0
1695752232472,-0.28808594,-0.4921875,0.7919922,0.3125,0.0625,-0.03125,0.0,0.0,0.0
1695752232533,-0.28808594,-0.49609375,0.796875,0.15625,-0.0625,-0.09375,0.0,0.0,0.0
1695752232562,-0.29296875,-0.48632812,0.7861328,0.28125,0.125,-0.03125,0.0,0.0,0.0
1695752232592,-0.2890625,-0.4873047,0.7871094,0.375,0.0,0.15625,1.1875,-21.125,5.3125
1695752232655,-0.29785156,-0.484375,0.79296875,0.3125,0.0625,0.15625,0.0,0.0,0.0
