# Sensor type: Thingy
# Activity type: Normal walking
# Activity subtype: Normal
# Subject id: s2063346
# Notes: thingy 1.31
timestamp,accel_x,accel_y,accel_z,gyro_x,gyro_y,gyro_z,mag_x,mag_y,mag_z
1695752560829,-0.9765625,-0.11621094,0.078125,-6.96875,9.21875,2.3125,0.0,0.0,0.0
1695752560833,-0.92578125,-0.08496094,0.08984375,-4.46875,6.65625,8.71875,0.0,0.0,0.0
1695752560851,-0.85253906,-0.087890625,0.0107421875,0.84375,6.0,18.25,0.0,0.0,0.0
1695752560913,-0.91503906,-0.0234375,-0.036132812,16.15625,8.3125,27.75,0.0,0.0,0.0
1695752560944,-0.9951172,-0.08496094,-0.053710938,-2.84375,13.8125,28.4375,0.0,0.0,0.0
1695752560972,-1.1484375,0.0546875,-0.046875,-20.28125,28.03125,30.5,0.0,0.0,0.0
1695752561037,-1.2255859,-0.21386719,-0.0390625,-1.96875,29.3125,23.78125,0.0,0.0,0.0
1695752561062,-0.9160156,0.026367188,-9.765625E-4,-2.90625,9.34375,10.65625,-30.625,10.0625,-35.3125
1695752561091,-0.92578125,0.123046875,-0.09082031,11.9375,3.0,17.3125,0.0,0.0,0.0
1695752561152,-1.0195312,0.049804688,-0.06933594,-2.78125,24.3125,16.84375,0.0,0.0,0.0
1695752561181,-1.0185547,0.05859375,-0.030273438,-0.8125,12.15625,15.1875,0.0,0.0,0.0
1695752561211,-1.0332031,0.05078125,-0.06738281,-11.875,10.6875,9.09375,0.0,0.0,0.0
1695752561272,-0.9980469,0.009765625,-0.12207031,-2.21875,10.6875,2.78125,0.0,0.0,0.0
1695752561304,-1.0078125,0.095703125,-0.10058594,-10.28125,8.6875,-3.90625,0.0,0.0,0.0
1695752561333,-1.0078125,0.07324219,-0.07519531,-16.5,7.59375,-1.59375,0.0,0.0,0.0
1695752561391,-0.9375,0.0546875,-0.13867188,-2.96875,1.65625,0.90625,0.0,0.0,0.0
1695752561422,-0.97753906,0.037109375,-0.17675781,4.90625,4.90625,1.8125,0.0,0.0,0.0
1695752561452,-1.0205078,0.08105469,-0.16992188,13.40625,5.5625,4.3125,0.0,0.0,0.0
1695752561511,-1.0136719,0.059570312,-0.14648438,17.5,9.28125,10.71875,0.0,0.0,0.0
1695752561541,-1.015625,0.111328125,-0.10644531,2.53125,10.28125,5.0625,0.0,0.0,0.0
1695752561572,-1.0185547,0.06738281,-0.10546875,-27.4375,10.09375,2.125,-30.3125,11.75,-39.375
1695752561632,-0.9980469,-0.038085938,-0.12597656,-37.375,4.96875,2.25,0.0,0.0,0.0
1695752561662,-0.98828125,-0.06738281,-0.17285156,-16.1875,4.53125,1.8125,0.0,0.0,0.0
1695752561692,-0.98046875,0.034179688,-0.1484375,-3.5,7.9375,3.34375,0.0,0.0,0.0
1695752561782,-0.984375,0.09472656,-0.12695312,-1.3125,8.125,10.1875,0.0,0.0,0.0
1695752561784,-0.97558594,0.07910156,-0.15917969,-5.03125,9.65625,16.59375,0.0,0.0,0.0
1695752561812,-0.96875,0.05859375,-0.140625,-7.65625,10.9375,20.96875,0.0,0.0,0.0
1695752561872,-1.0,0.059570312,-0.15917969,-6.0625,11.78125,23.4375,0.0,0.0,0.0
1695752561902,-0.99316406,0.024414062,-0.15527344,-7.59375,12.15625,23.96875,0.0,0.0,0.0
1695752561932,-0.984375,0.045898438,-0.17871094,-15.71875,7.78125,20.3125,0.0,0.0,0.0
1695752561992,-0.9892578,0.040039062,-0.18359375,-24.0625,7.03125,16.15625,0.0,0.0,0.0
1695752562023,-0.9941406,0.028320312,-0.15234375,-25.0,7.28125,11.40625,0.0,0.0,0.0
1695752562081,-1.03125,0.08203125,-0.15039062,-30.84375,5.15625,2.4375,-27.3125,17.875,-42.6875
1695752562111,-1.1142578,-0.013671875,-0.23242188,-16.3125,-2.78125,-4.59375,0.0,0.0,0.0
1695752562143,-1.2099609,0.020507812,-0.14550781,0.59375,-3.9375,-17.59375,0.0,0.0,0.0
1695752562171,-1.0693359,0.037109375,0.036132812,-1.84375,-22.25,-27.90625,0.0,0.0,0.0
1695752562232,-0.9658203,-0.049804688,0.11425781,-9.90625,-53.28125,-49.28125,0.0,0.0,0.0
1695752562262,-0.9326172,0.021484375,0.12207031,-30.125,-81.46875,-77.53125,0.0,0.0,0.0
1695752562292,-1.1132812,0.26171875,0.0048828125,-18.9375,-77.0625,-86.625,0.0,0.0,0.0
1695752562352,-1.1933594,0.3125,-0.16796875,-64.34375,-61.9375,-76.90625,0.0,0.0,0.0
1695752562382,-1.1416016,0.109375,-0.09082031,-140.65625,-32.6875,-72.09375,0.0,0.0,0.0
1695752562412,-1.09375,-0.049804688,-0.033203125,-77.65625,-16.40625,-64.46875,0.0,0.0,0.0
1695752562474,-0.99609375,-0.21777344,0.0087890625,-2.71875,-5.21875,-63.1875,0.0,0.0,0.0
1695752562502,-0.92578125,-0.18066406,0.045898438,16.625,-7.75,-66.96875,0.0,0.0,0.0
1695752562532,-0.8154297,0.038085938,0.040039062,57.84375,-14.3125,-53.65625,0.0,0.0,0.0
1695752562591,-0.79589844,0.08691406,0.078125,39.65625,-11.09375,-35.71875,-28.0625,2.3125,-33.6875
1695752562621,-0.7792969,0.032226562,0.11621094,-12.71875,10.5,-7.53125,0.0,0.0,0.0
1695752562651,-0.8623047,-0.15527344,0.115234375,-13.9375,8.625,16.15625,0.0,0.0,0.0
1695752562711,-0.875,-0.28027344,0.064453125,-11.625,9.0,27.875,0.0,0.0,0.0
1695752562743,-0.8671875,-0.27246094,0.034179688,21.34375,7.9375,39.59375,0.0,0.0,0.0
1695752562771,-0.9511719,-0.39453125,0.0625,37.9375,8.1875,45.40625,0.0,0.0,0.0
1695752562832,-1.0,-0.5205078,0.1015625,-32.0625,-9.5,17.6875,0.0,0.0,0.0
1695752562863,-1.0136719,-0.70214844,0.15625,5.78125,34.625,9.6875,0.0,0.0,0.0
1695752562897,-0.7988281,-0.26367188,0.0068359375,66.9375,15.40625,-1.46875,0.0,0.0,0.0
1695752562951,-1.0224609,0.068359375,-0.037109375,59.71875,35.125,39.21875,0.0,0.0,0.0
1695752562983,-1.9863281,-0.11816406,0.5878906,3.46875,24.75,38.9375,0.0,0.0,0.0
1695752563016,-1.0654297,0.05859375,-0.36132812,96.28125,-9.4375,9.03125,0.0,0.0,0.0
1695752563073,-0.265625,0.45996094,0.22167969,-44.65625,38.59375,29.65625,-29.25,7.5625,-35.9375
1695752563103,-1.0,0.40234375,-0.076171875,6.5,16.75,48.28125,0.0,0.0,0.0
1695752563131,-1.203125,-0.20800781,-0.22265625,41.0,29.6875,62.1875,0.0,0.0,0.0
1695752563192,-0.8466797,-0.26757812,-0.038085938,-41.34375,-2.84375,30.375,0.0,0.0,0.0
1695752563222,-1.0214844,0.12207031,-0.24414062,60.40625,10.15625,21.46875,0.0,0.0,0.0
1695752563256,-1.0625,0.14941406,-0.18945312,37.4375,28.75,26.96875,0.0,0.0,0.0
1695752563312,-1.0429688,0.123046875,0.059570312,-59.40625,24.75,17.4375,0.0,0.0,0.0
1695752563374,-0.9501953,-0.056640625,-0.16015625,-21.4375,12.96875,10.71875,0.0,0.0,0.0
1695752563386,-0.90722656,0.03125,-0.18457031,-28.28125,9.84375,0.53125,0.0,0.0,0.0
1695752563432,-0.95410156,0.08105469,-0.10546875,-34.6875,15.40625,5.65625,0.0,0.0,0.0
1695752563461,-0.97558594,0.09667969,-0.10253906,-1.5625,11.78125,19.09375,0.0,0.0,0.0
1695752563491,-0.9580078,0.11621094,-0.15332031,-5.8125,17.90625,24.46875,0.0,0.0,0.0
1695752563551,-1.0019531,0.10058594,-0.12792969,-14.5625,20.59375,28.78125,0.0,0.0,0.0
1695752563613,-0.9658203,0.06347656,-0.08496094,-15.65625,18.625,28.84375,-28.625,18.1875,-43.125
1695752563615,-0.9482422,0.040039062,-0.12792969,-16.4375,15.09375,27.9375,0.0,0.0,0.0
1695752563671,-0.99316406,0.021484375,-0.15820312,-20.59375,13.125,22.5625,0.0,0.0,0.0
1695752563701,-0.953125,0.016601562,-0.20996094,-23.34375,8.9375,16.09375,0.0,0.0,0.0
1695752563731,-0.97265625,0.109375,-0.111328125,-42.625,17.0,8.53125,0.0,0.0,0.0
1695752563792,-1.0117188,0.01171875,-0.12988281,-36.03125,10.15625,15.1875,0.0,0.0,0.0
1695752563822,-1.0664062,-0.08105469,-0.18261719,-27.75,7.21875,3.59375,0.0,0.0,0.0
1695752563852,-1.3222656,-0.10253906,-0.16796875,-1.0,-4.25,-22.84375,0.0,0.0,0.0
1695752563912,-1.40625,-0.12011719,-0.033203125,19.4375,-23.1875,-45.84375,0.0,0.0,0.0
1695752563942,-1.0322266,0.044921875,0.2265625,1.6875,-81.59375,-78.125,0.0,0.0,0.0
1695752563972,-0.8076172,0.3720703,0.08691406,-34.5625,-102.46875,-101.875,0.0,0.0,0.0
1695752564032,-0.94140625,0.2607422,-0.057617188,-42.6875,-61.375,-79.65625,0.0,0.0,0.0
1695752564061,-1.2197266,0.109375,-0.16992188,-38.0,-72.125,-83.375,-32.375,15.1875,-40.25
1695752564091,-1.2050781,0.07519531,-0.0546875,-87.78125,-28.78125,-76.25,0.0,0.0,0.0
1695752564152,-0.9921875,-0.11035156,-0.07421875,-59.78125,-17.25,-74.59375,0.0,0.0,0.0
1695752564182,-0.9501953,-0.171875,0.0029296875,2.0625,-8.28125,-75.34375,0.0,0.0,0.0
1695752564212,-0.90722656,-0.16894531,0.03125,32.9375,0.6875,-66.40625,0.0,0.0,0.0
1695752564272,-0.77246094,9.765625E-4,0.02734375,79.6875,-6.75,-52.375,0.0,0.0,0.0
1695752564302,-0.7285156,0.111328125,0.14941406,35.875,5.21875,-30.78125,0.0,0.0,0.0
1695752564333,-0.8359375,-0.061523438,0.13671875,10.0,12.53125,2.5,0.0,0.0,0.0
1695752564422,-0.8457031,-0.15234375,0.13867188,12.1875,7.15625,17.9375,0.0,0.0,0.0
1695752564425,-0.7480469,-0.19628906,0.13769531,102.6875,-80.5625,25.0625,0.0,0.0,0.0
1695752564452,-0.8378906,-0.39941406,0.12695312,-20.28125,6.25,41.25,0.0,0.0,0.0
1695752564573,-1.0849609,-0.7167969,0.21191406,9.5,24.6875,61.8125,0.0,0.0,0.0
1695752564576,-1.0849609,-0.7470703,0.14453125,7.53125,22.71875,7.125,0.0,0.0,0.0
1695752564581,-0.7578125,-0.35253906,0.0068359375,-9.78125,16.25,-10.5,-32.375,6.1875,-36.0625
1695752564662,-0.953125,0.12890625,0.06933594,91.78125,69.90625,47.46875,0.0,0.0,0.0
1695752564665,-1.9863281,0.04296875,0.94921875,11.8125,11.375,56.3125,0.0,0.0,0.0
1695752564692,-1.4931641,-0.044921875,-0.52441406,123.21875,-9.875,14.875,0.0,0.0,0.0
1695752564782,-0.29882812,0.22363281,-0.15625,-26.9375,51.84375,21.21875,0.0,0.0,0.0
1695752564784,-0.7548828,0.45507812,0.0,-98.78125,28.09375,18.65625,0.0,0.0,0.0
1695752564842,-1.2070312,-0.045898438,-0.32128906,122.71875,24.84375,58.8125,0.0,0.0,0.0
1695752564872,-0.9355469,-0.27441406,-0.12011719,5.15625,27.46875,42.59375,0.0,0.0,0.0
1695752564903,-0.9736328,0.15429688,-0.09082031,-25.53125,23.5,13.28125,0.0,0.0,0.0
1695752564932,-1.0595703,0.171875,-0.10058594,20.125,24.8125,25.8125,0.0,0.0,0.0
1695752564993,-1.0322266,0.01171875,-0.06640625,-47.5,20.40625,22.6875,0.0,0.0,0.0
1695752565023,-0.9003906,-0.06933594,-0.12402344,-31.8125,15.21875,11.03125,0.0,0.0,0.0
1695752565052,-0.9794922,-0.024414062,-0.15332031,-11.375,11.25,10.96875,-31.625,14.0,-43.25
1695752565112,-0.984375,0.07910156,-0.11328125,-7.21875,15.59375,13.59375,0.0,0.0,0.0
1695752565143,-0.9580078,0.16113281,-0.0859375,-0.34375,15.59375,23.0,0.0,0.0,0.0
1695752565172,-1.0087891,0.10546875,-0.13378906,-10.78125,18.03125,27.46875,0.0,0.0,0.0
1695752565233,-0.9892578,0.051757812,-0.12109375,-19.0,19.4375,29.09375,0.0,0.0,0.0
1695752565262,-0.99902344,-0.017578125,-0.12695312,-20.34375,16.875,26.21875,0.0,0.0,0.0
1695752565292,-1.0078125,-0.05078125,-0.15039062,-21.9375,15.21875,20.625,0.0,0.0,0.0
1695752565353,-0.97265625,-0.048828125,-0.19433594,-19.3125,6.1875,16.40625,0.0,0.0,0.0
1695752565382,-0.99316406,0.015625,-0.15722656,-22.375,6.5,11.28125,0.0,0.0,0.0
1695752565412,-1.0087891,0.053710938,-0.12695312,-22.90625,8.25,17.125,0.0,0.0,0.0
1695752565472,-0.97558594,-0.059570312,-0.20898438,-17.84375,2.6875,16.03125,0.0,0.0,0.0
1695752565502,-1.0888672,0.005859375,-0.1484375,-13.28125,1.46875,-5.875,0.0,0.0,0.0
1695752565533,-1.4423828,-0.028320312,-0.12402344,18.28125,-10.125,-29.5,0.0,0.0,0.0
1695752565593,-1.2431641,0.01171875,0.083984375,10.34375,-38.125,-43.65625,-29.6875,20.3125,-47.3125
1695752565653,-0.96875,0.01953125,0.15429688,-12.40625,-80.65625,-81.625,0.0,0.0,0.0
1695752565656,-0.8574219,0.2919922,0.1171875,-57.875,-91.96875,-114.34375,0.0,0.0,0.0
1695752565713,-1.0039062,0.30664062,0.017578125,-32.1875,-64.9375,-81.125,0.0,0.0,0.0
1695752565743,-1.2138672,0.12597656,-0.14355469,-39.9375,-60.40625,-76.78125,0.0,0.0,0.0
1695752565772,-1.1894531,-0.09765625,-0.057617188,-97.0,-19.75,-69.09375,0.0,0.0,0.0
1695752565833,-0.96875,-0.18164062,-0.018554688,-37.1875,-19.46875,-72.65625,0.0,0.0,0.0
1695752565863,-0.9658203,-0.15527344,0.041015625,19.8125,-6.9375,-68.3125,0.0,0.0,0.0
1695752565922,-0.890625,-0.15722656,0.0,66.875,-0.78125,-54.15625,0.0,0.0,0.0
1695752565952,-0.7392578,0.01171875,0.05859375,52.78125,3.3125,-43.59375,0.0,0.0,0.0
1695752565982,-0.71972656,0.11230469,0.05859375,31.03125,17.40625,-15.5,0.0,0.0,0.0
1695752566012,-0.7939453,-0.09863281,0.18457031,13.40625,28.59375,14.8125,0.0,0.0,0.0
1695752566073,-0.84375,-0.2685547,0.103515625,5.28125,16.8125,25.5,-33.0,1.25,-36.0625
1695752566102,-0.9394531,-0.29882812,0.038085938,5.21875,14.53125,37.53125,0.0,0.0,0.0
1695752566132,-0.95703125,-0.3876953,0.12597656,9.25,13.625,40.5,0.0,0.0,0.0
1695752566195,-0.9736328,-0.5371094,-0.020507812,17.8125,20.15625,32.21875,0.0,0.0,0.0
1695752566223,-1.0898438,-0.6591797,0.20800781,-4.84375,41.75,23.65625,0.0,0.0,0.0
1695752566252,-0.90722656,-0.4189453,0.14257812,95.0,9.1875,-4.09375,0.0,0.0,0.0
1695752566312,-0.8925781,-0.10058594,-0.109375,42.75,27.0,22.75,0.0,0.0,0.0
1695752566342,-1.2978516,0.09863281,0.08984375,48.3125,45.125,61.09375,0.0,0.0,0.0
1695752566372,-1.8857422,-0.036132812,-0.08105469,52.15625,-10.0,12.1875,0.0,0.0,0.0
1695752566433,-0.6142578,0.18066406,-0.15722656,26.53125,9.59375,12.8125,0.0,0.0,0.0
1695752566462,-0.37695312,0.50878906,0.53125,-129.65625,22.40625,41.3125,0.0,0.0,0.0
1695752566492,-1.1992188,0.16308594,-0.46289062,31.09375,14.46875,58.8125,0.0,0.0,0.0
1695752566554,-1.1181641,-0.29882812,-0.017578125,79.5625,58.3125,60.34375,0.0,0.0,0.0
1695752566582,-0.85058594,0.044921875,0.18164062,-111.40625,-16.9375,-7.46875,-31.625,10.8125,-44.0
1695752566612,-0.9951172,0.14160156,-0.22167969,86.34375,10.5625,28.90625,0.0,0.0,0.0
1695752566672,-1.0527344,0.044921875,-0.19042969,-24.5625,21.25,25.8125,0.0,0.0,0.0
1695752566703,-0.94921875,-0.020507812,-0.036132812,-45.8125,16.0,20.8125,0.0,0.0,0.0
1695752566731,-0.9453125,0.017578125,-0.16796875,4.3125,13.3125,13.78125,0.0,0.0,0.0
1695752566793,-0.9472656,0.08300781,-0.08300781,-38.125,15.34375,8.65625,0.0,0.0,0.0
1695752566822,-0.98535156,0.06933594,-0.08691406,-31.59375,11.25,20.125,0.0,0.0,0.0
1695752566853,-0.9707031,0.0048828125,-0.16699219,-7.15625,10.46875,30.6875,0.0,0.0,0.0
1695752566913,-0.9736328,0.036132812,-0.13769531,-11.1875,17.34375,28.6875,0.0,0.0,0.0
1695752566942,-0.9794922,0.047851562,-0.08886719,-13.40625,17.09375,30.75,0.0,0.0,0.0
1695752566972,-0.95214844,0.046875,-0.087890625,-14.375,16.625,27.625,0.0,0.0,0.0
1695752567032,-0.9707031,9.765625E-4,-0.1484375,-27.25,11.78125,22.9375,0.0,0.0,0.0
1695752567061,-0.96875,-0.09277344,-0.21386719,-30.90625,3.375,17.03125,-32.6875,20.75,-46.6875
1695752567092,-0.9746094,-0.08203125,-0.115234375,-35.0625,10.40625,5.90625,0.0,0.0,0.0
1695752567152,-1.0419922,-0.08886719,-0.049804688,-22.1875,-1.5,-8.5,0.0,0.0,0.0
1695752567212,-1.2373047,-0.060546875,-0.1640625,12.375,-11.15625,-35.65625,0.0,0.0,0.0
1695752567215,-1.6357422,-0.0048828125,0.0107421875,9.0625,-25.6875,-65.8125,0.0,0.0,0.0
1695752567272,-1.1416016,0.0234375,0.18261719,-22.65625,-72.3125,-88.625,0.0,0.0,0.0
1695752567303,-0.98828125,0.4091797,0.15136719,-83.65625,-93.1875,-133.125,0.0,0.0,0.0
1695752567332,-0.8857422,0.3515625,0.11035156,-82.125,-51.6875,-86.25,0.0,0.0,0.0
1695752567392,-1.1337891,0.06640625,-0.028320312,-65.5625,-55.59375,-74.0625,0.0,0.0,0.0
1695752567453,-1.1826172,0.0126953125,-0.032226562,-86.5,-41.84375,-71.1875,0.0,0.0,0.0
1695752567456,-0.9199219,-0.09863281,0.033203125,-39.40625,-26.03125,-63.84375,0.0,0.0,0.0
1695752567511,-0.9033203,-0.12011719,0.024414062,8.875,-18.84375,-55.3125,0.0,0.0,0.0
1695752567542,-0.8535156,-0.17089844,-0.0078125,20.96875,0.9375,-34.8125,0.0,0.0,0.0
1695752567572,-0.7832031,-0.15625,-0.041015625,43.6875,10.9375,-27.96875,-33.75,3.8125,-34.4375
1695752567633,-0.73828125,0.015625,0.099609375,23.78125,16.625,-7.34375,0.0,0.0,0.0
1695752567667,-0.81347656,-0.15332031,0.17871094,10.46875,21.8125,20.5625,0.0,0.0,0.0
1695752567692,-0.8417969,-0.29296875,0.087890625,6.09375,21.6875,28.84375,0.0,0.0,0.0
1695752567752,-0.9199219,-0.34179688,0.072265625,18.65625,24.4375,38.75,0.0,0.0,0.0
1695752567783,-1.0,-0.42578125,0.09375,30.3125,17.09375,37.90625,0.0,0.0,0.0
1695752567813,-0.9765625,-0.5595703,0.030273438,51.3125,5.875,21.59375,0.0,0.0,0.0
1695752567872,-0.91308594,-0.44726562,0.0390625,18.03125,30.59375,6.09375,0.0,0.0,0.0
1695752567902,-0.89453125,-0.45703125,0.21191406,31.40625,26.09375,-0.5,0.0,0.0,0.0
1695752567932,-0.8408203,-0.1171875,-0.115234375,65.03125,15.59375,25.5625,0.0,0.0,0.0
1695752567994,-1.2861328,0.12792969,-0.005859375,62.15625,37.375,62.4375,0.0,0.0,0.0
1695752568022,-1.9863281,-0.0625,0.17382812,-5.46875,-8.71875,8.84375,0.0,0.0,0.0
1695752568052,-0.6191406,0.2705078,-0.17773438,36.28125,4.03125,2.0625,-31.0625,5.75,-39.6875
1695752568113,-0.2734375,0.56152344,0.6064453,-98.96875,41.03125,43.25,0.0,0.0,0.0
1695752568143,-1.2050781,0.123046875,-0.4111328,-3.5625,8.375,64.75,0.0,0.0,0.0
1695752568173,-1.1220703,-0.2578125,-0.34765625,152.6875,36.53125,70.84375,0.0,0.0,0.0
1695752568232,-0.80859375,-0.07519531,0.03515625,-111.78125,-17.3125,14.28125,0.0,0.0,0.0
1695752568263,-1.0107422,0.19042969,-0.048828125,4.75,26.8125,18.65625,0.0,0.0,0.0
1695752568293,-1.1083984,0.111328125,-0.109375,0.34375,21.0625,23.3125,0.0,0.0,0.0
1695752568353,-0.94433594,-0.025390625,-0.13476562,-62.90625,15.40625,12.0625,0.0,0.0,0.0
1695752568384,-0.92578125,-0.0146484375,-0.1640625,-22.0,17.09375,9.09375,0.0,0.0,0.0
1695752568412,-0.9794922,0.04296875,-0.099609375,-34.6875,14.375,5.34375,0.0,0.0,0.0
1695752568533,-0.9667969,0.083984375,-0.1015625,-30.96875,12.09375,9.375,0.0,0.0,0.0
1695752568536,-0.9716797,0.08496094,-0.14257812,-19.1875,11.0625,18.0,0.0,0.0,0.0
1695752568540,-0.97265625,0.057617188,-0.14453125,-20.96875,15.8125,22.21875,0.0,0.0,0.0
1695752568592,-0.9638672,0.072265625,-0.12695312,-12.59375,18.15625,27.5625,-29.25,19.25,-45.9375
1695752568622,-0.953125,0.080078125,-0.14453125,-11.0625,18.375,29.28125,0.0,0.0,0.0
1695752568683,-0.93847656,0.09667969,-0.140625,-25.0625,16.4375,25.375,0.0,0.0,0.0
1695752568712,-0.9794922,0.06933594,-0.12597656,-34.5625,11.0,17.5625,0.0,0.0,0.0
1695752568743,-0.9511719,0.015625,-0.18847656,-40.125,8.4375,10.25,0.0,0.0,0.0
1695752568772,-0.984375,0.049804688,-0.11425781,-48.375,13.1875,8.40625,0.0,0.0,0.0
1695752568832,-0.96777344,-0.046875,-0.16503906,-39.09375,8.75,13.78125,0.0,0.0,0.0
1695752568864,-1.1542969,-0.07714844,-0.18457031,-27.5,5.4375,5.0625,0.0,0.0,0.0
1695752568896,-1.3251953,-0.13183594,-0.140625,-6.4375,-3.78125,-18.25,0.0,0.0,0.0
1695752568952,-1.3515625,-0.13183594,0.017578125,19.3125,-27.5625,-44.3125,0.0,0.0,0.0
1695752568984,-1.0703125,0.028320312,0.25195312,9.4375,-79.5,-87.15625,0.0,0.0,0.0
1695752569014,-0.9121094,0.47753906,0.08203125,-28.96875,-95.25,-118.78125,0.0,0.0,0.0
1695752569072,-1.0214844,0.32714844,-0.045898438,-88.65625,-57.59375,-84.375,-29.875,19.0625,-39.5
1695752569102,-1.1982422,-0.032226562,-0.1640625,-69.71875,-58.8125,-74.46875,0.0,0.0,0.0
1695752569139,-1.078125,-0.10058594,-0.0625,-90.53125,-32.34375,-75.03125,0.0,0.0,0.0
1695752569193,-0.9814453,-0.12890625,-0.0068359375,-36.28125,-31.96875,-87.84375,0.0,0.0,0.0
1695752569223,-0.95996094,-0.11230469,0.0078125,42.40625,-16.46875,-68.5625,0.0,0.0,0.0
1695752569252,-0.9609375,-0.09277344,0.0703125,6.8125,-6.75,-61.0,0.0,0.0,0.0
1695752569313,-0.7626953,0.0087890625,-0.0146484375,47.21875,-6.09375,-44.125,0.0,0.0,0.0
1695752569341,-0.71875,0.0234375,0.061523438,14.0625,10.75,-18.375,0.0,0.0,0.0
1695752569373,-0.7607422,-0.07910156,0.13671875,3.75,15.34375,13.78125,0.0,0.0,0.0
1695752569433,-0.8203125,-0.22558594,0.14941406,8.53125,4.15625,33.1875,0.0,0.0,0.0
1695752569462,-0.8408203,-0.29492188,0.072265625,12.4375,13.125,44.96875,0.0,0.0,0.0
1695752569491,-0.8652344,-0.4296875,0.15820312,61.9375,20.21875,63.84375,0.0,0.0,0.0
1695752569552,-1.2314453,-0.5996094,0.28320312,89.28125,4.65625,68.46875,0.0,0.0,0.0
1695752569612,-1.2158203,-0.89746094,0.046875,33.0625,3.25,-17.90625,-31.625,11.875,-33.6875
1695752569615,-0.5722656,0.013671875,-0.13085938,11.4375,25.15625,-16.0625,0.0,0.0,0.0
1695752569673,-1.1875,0.36914062,0.25976562,13.03125,55.875,57.125,0.0,0.0,0.0
1695752569702,-1.9863281,-0.23828125,0.29003906,54.65625,-49.3125,32.53125,0.0,0.0,0.0
1695752569762,-0.9433594,0.00390625,-0.4296875,97.3125,23.625,16.78125,0.0,0.0,0.0
1695752569792,-0.36035156,0.33398438,0.18847656,-74.4375,59.78125,24.53125,0.0,0.0,0.0
1695752569822,-1.0791016,0.1875,-0.11621094,-90.59375,31.875,27.75,0.0,0.0,0.0
1695752569882,-1.1708984,-0.115234375,-0.234375,130.96875,32.125,68.15625,0.0,0.0,0.0
1695752569914,-0.8613281,-0.06738281,-0.13378906,-14.78125,5.5,23.5625,0.0,0.0,0.0
1695752569942,-1.0175781,0.115234375,-0.045898438,-11.875,36.625,18.53125,0.0,0.0,0.0
1695752569978,-1.0566406,0.078125,-0.01171875,-8.15625,19.3125,24.40625,0.0,0.0,0.0
1695752570032,-1.0273438,0.013671875,-0.12597656,-46.40625,15.03125,15.3125,0.0,0.0,0.0
1695752570062,-0.8828125,-0.0126953125,-0.13476562,-29.5625,10.03125,15.0,-31.1875,19.6875,-42.1875
1695752570094,-0.9814453,0.036132812,-0.16308594,-4.59375,10.34375,13.0,0.0,0.0,0.0
1695752570152,-0.94921875,0.13574219,-0.08496094,-25.34375,17.0,10.96875,0.0,0.0,0.0
1695752570182,-0.9902344,0.14453125,-0.080078125,-16.6875,14.59375,21.21875,0.0,0.0,0.0
1695752570213,-1.0048828,0.07519531,-0.103515625,-23.59375,19.0625,25.8125,0.0,0.0,0.0
1695752570272,-0.95410156,0.043945312,-0.099609375,-21.21875,15.46875,30.03125,0.0,0.0,0.0
1695752570302,-0.9873047,-0.02734375,-0.13574219,-8.6875,18.03125,31.125,0.0,0.0,0.0
1695752570332,-0.9921875,0.037109375,-0.10839844,-15.65625,13.375,19.34375,0.0,0.0,0.0
1695752570392,-1.0195312,0.040039062,-0.16601562,-25.125,6.78125,12.625,0.0,0.0,0.0
1695752570422,-0.9511719,-0.0146484375,-0.14746094,-25.53125,8.625,16.28125,0.0,0.0,0.0
1695752570456,-0.9873047,-0.083984375,-0.17871094,-15.84375,9.0,12.75,0.0,0.0,0.0
1695752570513,-1.0478516,-0.11230469,-0.15429688,-11.5625,-7.375,1.09375,0.0,0.0,0.0
1695752570542,-1.1826172,-0.11425781,-0.078125,-7.28125,-10.53125,-20.46875,0.0,0.0,0.0
1695752570574,-1.3623047,-0.3203125,-0.0048828125,10.0,-37.28125,-56.46875,-28.375,27.5,-45.375
1695752570635,-1.2509766,-0.119140625,0.25878906,41.0,-91.15625,-99.5,0.0,0.0,0.0
1695752570661,-1.0078125,0.42285156,0.037109375,31.21875,-104.34375,-120.96875,0.0,0.0,0.0
1695752570692,-1.1464844,0.4716797,-0.13769531,-93.03125,-65.90625,-104.8125,0.0,0.0,0.0
1695752570753,-1.0703125,-0.107421875,-0.12011719,-16.03125,-48.5625,-72.8125,0.0,0.0,0.0
1695752570782,-1.1396484,-0.19042969,-0.05078125,-32.0,-31.90625,-77.03125,0.0,0.0,0.0
1695752570812,-0.96972656,-0.109375,-0.14160156,3.875,-23.25,-83.15625,0.0,0.0,0.0
1695752570872,-0.94921875,-0.0126953125,-0.015625,31.53125,4.96875,-80.875,0.0,0.0,0.0
1695752570902,-0.80859375,-0.0107421875,-0.016601562,58.15625,6.71875,-49.34375,0.0,0.0,0.0
1695752570965,-0.79785156,-0.078125,-0.0146484375,85.0,15.21875,-32.78125,0.0,0.0,0.0
1695752570992,-0.7363281,0.140625,0.060546875,40.75,25.96875,-19.53125,0.0,0.0,0.0
1695752571053,-0.8232422,-0.09863281,0.18847656,22.75,35.96875,13.46875,0.0,0.0,0.0
1695752571055,-0.8798828,-0.28808594,0.19042969,8.28125,22.78125,23.125,-29.6875,4.25,-32.4375
1695752571113,-0.90527344,-0.30273438,0.12402344,15.90625,17.90625,35.8125,0.0,0.0,0.0
1695752571142,-0.9736328,-0.3955078,0.15820312,38.84375,4.90625,39.96875,0.0,0.0,0.0
1695752571172,-0.92871094,-0.5546875,-0.10644531,36.78125,22.90625,31.78125,0.0,0.0,0.0
1695752571233,-1.1455078,-0.66308594,0.3154297,10.15625,28.59375,16.40625,0.0,0.0,0.0
1695752571262,-0.8496094,-0.4482422,-0.0068359375,80.3125,17.71875,-7.21875,0.0,0.0,0.0
1695752571292,-0.7675781,-0.087890625,-0.041015625,39.90625,37.25,25.5,0.0,0.0,0.0
1695752571352,-1.1279297,0.27539062,0.033203125,42.46875,54.65625,64.375,0.0,0.0,0.0
1695752571383,-1.9365234,-0.3388672,0.47070312,29.28125,-23.59375,35.09375,0.0,0.0,0.0
1695752571412,-1.1816406,0.068359375,-0.25585938,85.1875,15.03125,43.375,0.0,0.0,0.0
1695752571472,-0.32714844,0.46484375,0.6689453,-213.34375,-0.71875,58.15625,0.0,0.0,0.0
1695752571504,-1.0605469,0.1328125,-0.44726562,88.40625,-5.0625,64.1875,0.0,0.0,0.0
1695752571532,-1.0664062,-0.203125,-0.38964844,134.75,28.875,59.6875,0.0,0.0,0.0
1695752571622,-0.91796875,-0.01171875,0.041992188,-116.65625,33.09375,21.15625,-30.75,13.8125,-36.9375
1695752571625,-1.0644531,0.22949219,0.078125,28.96875,34.25,25.75,0.0,0.0,0.0
1695752571652,-1.0351562,0.12109375,-0.14648438,17.8125,16.1875,23.0,0.0,0.0,0.0
1695752571712,-0.9453125,0.13476562,-0.10839844,-80.78125,15.53125,3.53125,0.0,0.0,0.0
1695752571742,-0.9794922,-0.037109375,-0.18945312,-5.59375,6.59375,17.125,0.0,0.0,0.0
1695752571772,-0.90722656,0.020507812,-0.17578125,3.34375,12.96875,12.25,0.0,0.0,0.0
1695752571832,-0.97265625,0.15917969,-0.083984375,-0.875,16.0625,15.0,0.0,0.0,0.0
1695752571864,-0.97753906,0.20605469,-0.06347656,3.5625,16.3125,26.96875,0.0,0.0,0.0
1695752571892,-0.9824219,0.13085938,-0.12207031,1.1875,17.09375,36.71875,0.0,0.0,0.0
1695752571952,-0.9892578,0.030273438,-0.08203125,-17.53125,16.25,33.5,0.0,0.0,0.0
1695752571983,-0.9902344,0.00390625,-0.10839844,-14.0,12.65625,28.4375,0.0,0.0,0.0
1695752572014,-0.9873047,0.016601562,-0.10839844,-19.0625,12.21875,22.625,0.0,0.0,0.0
1695752572072,-0.98828125,-0.03515625,-0.16894531,-16.0625,5.15625,14.625,-27.4375,23.125,-41.75
1695752572103,-0.9746094,0.021484375,-0.12207031,-19.0,8.8125,8.71875,0.0,0.0,0.0
1695752572132,-1.0146484,-0.07324219,-0.14941406,-9.25,1.84375,6.03125,0.0,0.0,0.0
1695752572223,-1.1220703,-0.044921875,-0.1796875,-10.03125,-5.96875,-13.375,0.0,0.0,0.0
1695752572227,-1.4082031,-0.11035156,-0.030273438,5.34375,-14.9375,-49.15625,0.0,0.0,0.0
1695752572252,-1.3183594,-0.13085938,0.22558594,24.03125,-64.4375,-79.125,0.0,0.0,0.0
1695752572373,-0.9482422,0.2626953,0.111328125,34.21875,-104.28125,-100.21875,0.0,0.0,0.0
1695752572376,-0.92089844,0.53808594,-0.057617188,-34.09375,-77.375,-111.71875,0.0,0.0,0.0
1695752572379,-1.0644531,0.0087890625,-0.057617188,-40.375,-46.90625,-78.0,0.0,0.0,0.0
1695752572494,-1.28125,-0.123046875,-0.072265625,15.40625,-46.75,-62.375,0.0,0.0,0.0
1695752572496,-0.9169922,-0.080078125,-0.21777344,11.09375,-30.625,-55.125,0.0,0.0,0.0
1695752572499,-0.8964844,-0.034179688,-0.055664062,-43.375,-4.375,-71.125,0.0,0.0,0.0
1695752572554,-0.90527344,-0.024414062,-0.0390625,19.1875,17.15625,-57.5625,0.0,0.0,0.0
1695752572582,-0.8701172,-0.16015625,-0.013671875,62.0625,17.28125,-37.78125,-29.875,5.875,-31.25
1695752572612,-0.8417969,-0.09082031,-0.018554688,65.90625,28.28125,-27.0,0.0,0.0,0.0
1695752572675,-0.8876953,0.0126953125,0.14941406,36.96875,29.3125,-6.90625,0.0,0.0,0.0
1695752572703,-0.8671875,-0.17285156,0.15136719,21.71875,22.71875,3.28125,0.0,0.0,0.0
1695752572732,-0.8847656,-0.22070312,0.09765625,17.25,22.59375,18.90625,0.0,0.0,0.0
1695752572793,-0.9794922,-0.31152344,0.171875,31.09375,8.1875,22.03125,0.0,0.0,0.0
1695752572822,-0.8955078,-0.41015625,0.08984375,41.71875,-0.71875,21.21875,0.0,0.0,0.0
1695752572852,-0.8808594,-0.5283203,-0.099609375,34.59375,32.25,15.5,0.0,0.0,0.0
1695752572912,-1.0908203,-0.5566406,0.18457031,9.25,37.90625,10.375,0.0,0.0,0.0
1695752572941,-0.8300781,-0.49804688,0.01171875,77.6875,20.46875,-0.4375,0.0,0.0,0.0
1695752572971,-0.88183594,-0.09375,-0.125,69.0,26.6875,33.3125,0.0,0.0,0.0
1695752573032,-1.4765625,0.15917969,0.059570312,33.0625,52.375,58.40625,0.0,0.0,0.0
1695752573063,-1.8320312,-0.040039062,-0.33203125,66.4375,-18.15625,1.28125,-29.875,6.1875,-33.375
1695752573093,-0.4404297,0.24609375,0.109375,-22.3125,29.5,17.75,0.0,0.0,0.0
1695752573153,-0.62402344,0.40625,0.24121094,-106.90625,7.28125,41.75,0.0,0.0,0.0
1695752573184,-1.3007812,-0.033203125,-0.4560547,68.875,8.625,63.34375,0.0,0.0,0.0
1695752573242,-1.0507812,-0.31054688,-0.19042969,135.46875,50.96875,82.15625,0.0,0.0,0.0
1695752573273,-0.71191406,0.07324219,-0.08886719,-50.125,-5.34375,-6.96875,0.0,0.0,0.0
1695752573333,-1.1376953,0.25,0.099609375,-70.34375,36.28125,10.0,0.0,0.0,0.0
1695752573337,-1.0263672,0.24511719,-0.11816406,29.21875,1.71875,36.5625,0.0,0.0,0.0
1695752573394,-0.8935547,0.03515625,-0.28710938,-9.0625,18.28125,35.15625,0.0,0.0,0.0
1695752573423,-0.9423828,-0.17089844,-0.06738281,-27.125,19.5625,18.3125,0.0,0.0,0.0
1695752573451,-0.99902344,0.072265625,-0.044921875,-9.3125,9.59375,9.15625,0.0,0.0,0.0
1695752573511,-0.9609375,0.09082031,-0.111328125,5.34375,7.9375,22.03125,0.0,0.0,0.0
1695752573603,-0.9785156,0.12792969,-0.14550781,5.59375,13.75,26.53125,0.0,0.0,0.0
1695752573606,-0.9658203,0.13574219,-0.103515625,0.65625,19.5625,29.40625,-30.625,16.8125,-38.1875
1695752573633,-0.9892578,0.12207031,-0.10058594,-5.6875,20.65625,35.875,0.0,0.0,0.0
1695752573662,-0.95410156,0.0703125,-0.08886719,-16.625,16.75,33.5625,0.0,0.0,0.0
1695752573692,-1.0087891,-0.015625,-0.16601562,-21.5,8.3125,25.0625,0.0,0.0,0.0
1695752573753,-0.9824219,-0.078125,-0.20410156,-6.25,6.4375,18.71875,0.0,0.0,0.0
1695752573782,-1.0419922,-0.064453125,-0.12792969,-15.90625,7.15625,8.71875,0.0,0.0,0.0
1695752573812,-1.1191406,-0.09765625,-0.15234375,5.09375,-2.59375,-6.0625,0.0,0.0,0.0
1695752573873,-1.3222656,-0.15234375,-0.13183594,4.96875,-14.3125,-32.53125,0.0,0.0,0.0
1695752573903,-1.3115234,-0.13476562,0.046875,20.65625,-43.3125,-60.5,0.0,0.0,0.0
1695752573933,-1.0439453,0.083984375,0.25976562,25.90625,-92.375,-93.6875,0.0,0.0,0.0
1695752573993,-0.9277344,0.41796875,0.016601562,-2.53125,-100.375,-119.34375,0.0,0.0,0.0
1695752574023,-1.0869141,0.2861328,-0.14746094,-57.28125,-73.40625,-91.6875,0.0,0.0,0.0
1695752574052,-1.2236328,-0.046875,-0.08496094,-54.71875,-50.8125,-79.53125,-30.75,6.8125,-30.0625
1695752574144,-1.1425781,-0.06640625,-0.013671875,-61.65625,-29.65625,-81.3125,0.0,0.0,0.0
1695752574148,-0.94921875,-0.12695312,-0.04296875,-1.25,-21.65625,-72.34375,0.0,0.0,0.0
1695752574173,-0.8720703,-0.09082031,0.055664062,23.78125,-0.21875,-70.5625,0.0,0.0,0.0
1695752574232,-0.7998047,-0.09375,0.001953125,49.90625,3.5625,-49.4375,0.0,0.0,0.0
1695752574263,-0.7236328,-0.07714844,0.0029296875,64.5,12.03125,-33.40625,0.0,0.0,0.0
1695752574294,-0.7050781,0.12402344,0.083984375,30.96875,19.0,-13.6875,0.0,0.0,0.0
1695752574352,-0.83496094,-0.09863281,0.1640625,18.03125,31.5,25.0,0.0,0.0,0.0
1695752574383,-0.8691406,-0.2919922,0.103515625,0.71875,22.21875,33.75,0.0,0.0,0.0
1695752574413,-0.94433594,-0.36816406,0.11328125,11.15625,20.21875,41.96875,0.0,0.0,0.0
1695752574474,-1.0478516,-0.5019531,0.12597656,48.25,7.34375,44.46875,0.0,0.0,0.0
1695752574502,-1.0371094,-0.7246094,0.0146484375,1.25,31.875,20.6875,0.0,0.0,0.0
1695752574533,-1.1455078,-0.65625,0.23632812,41.65625,28.03125,-4.28125,0.0,0.0,0.0
1695752574592,-0.6113281,-0.24121094,-0.05859375,82.4375,25.03125,2.6875,-28.375,0.1875,-30.9375
1695752574621,-1.0117188,0.18261719,-0.0146484375,50.4375,64.28125,51.0,0.0,0.0,0.0
1695752574652,-1.9863281,-0.12890625,0.765625,51.375,-27.15625,38.875,0.0,0.0,0.0
1695752574714,-1.1835938,0.14648438,-0.30664062,86.53125,-7.4375,14.5,0.0,0.0,0.0
1695752574743,-0.2998047,0.4326172,0.54003906,-131.4375,63.96875,32.75,0.0,0.0,0.0
1695752574775,-1.0947266,0.1953125,-0.3623047,-22.375,-0.28125,47.09375,0.0,0.0,0.0
1695752574832,-1.0927734,-0.14257812,-0.5253906,132.125,36.875,69.875,0.0,0.0,0.0
1695752574894,-0.8828125,-0.06933594,0.15429688,-10.21875,47.8125,58.15625,0.0,0.0,0.0
1695752574899,-0.96777344,0.1953125,0.017578125,-61.625,34.25,19.21875,0.0,0.0,0.0
1695752574952,-1.0947266,0.03515625,-0.078125,17.0,20.59375,25.625,0.0,0.0,0.0
1695752574984,-0.9863281,-0.028320312,-0.17675781,-57.46875,9.84375,11.09375,0.0,0.0,0.0
1695752575013,-0.9248047,-0.10449219,-0.15429688,-24.1875,18.09375,12.5,0.0,0.0,0.0
1695752575071,-0.9765625,0.0068359375,-0.14648438,-0.28125,14.59375,7.9375,-29.875,8.4375,-38.4375
1695752575103,-0.9628906,0.13378906,-0.061523438,-9.0,15.15625,13.59375,0.0,0.0,0.0
1695752575134,-0.98046875,0.1484375,-0.103515625,-9.125,13.4375,23.84375,0.0,0.0,0.0
1695752575193,-0.98535156,0.07519531,-0.13378906,-15.46875,18.3125,31.125,0.0,0.0,0.0
1695752575223,-0.9707031,0.04296875,-0.10839844,-17.0,18.375,33.875,0.0,0.0,0.0
1695752575252,-0.9794922,0.001953125,-0.1484375,-8.875,17.46875,30.25,0.0,0.0,0.0
1695752575312,-0.9873047,0.022460938,-0.18945312,-19.1875,11.25,26.71875,0.0,0.0,0.0
1695752575343,-1.0009766,0.0029296875,-0.25585938,-17.78125,8.25,19.9375,0.0,0.0,0.0
1695752575372,-1.0146484,0.06640625,-0.072265625,-35.65625,15.8125,12.1875,0.0,0.0,0.0
1695752575432,-1.0097656,-0.043945312,-0.13867188,-18.875,1.78125,7.1875,0.0,0.0,0.0
1695752575462,-1.1464844,-0.017578125,-0.125,-35.375,-4.625,-16.625,0.0,0.0,0.0
1695752575493,-1.3349609,-0.17773438,-0.1640625,-5.21875,-17.6875,-34.6875,0.0,0.0,0.0
1695752575552,-1.1992188,-0.1171875,0.07421875,7.96875,-39.71875,-60.0,0.0,0.0,0.0
1695752575582,-0.9794922,0.03125,0.21386719,4.78125,-79.21875,-95.21875,-30.3125,14.3125,-39.9375
1695752575612,-0.93847656,0.41601562,0.12011719,-35.0625,-82.375,-123.78125,0.0,0.0,0.0
1695752575672,-1.109375,0.29296875,-0.07421875,-54.28125,-65.09375,-93.46875,0.0,0.0,0.0
1695752575732,-1.2041016,0.111328125,-0.06933594,-65.625,-48.625,-80.875,0.0,0.0,0.0
1695752575735,-1.1640625,-0.1015625,-0.0048828125,-99.8125,-28.5625,-76.90625,0.0,0.0,0.0
1695752575793,-0.95214844,-0.15234375,-0.033203125,-54.71875,-12.5625,-67.6875,0.0,0.0,0.0
1695752575882,-0.9511719,-0.21386719,0.08300781,31.28125,-8.96875,-58.71875,0.0,0.0,0.0
1695752575885,-0.88964844,-0.12792969,0.009765625,56.25,-5.59375,-45.84375,0.0,0.0,0.0
1695752575943,-0.73046875,0.0390625,0.053710938,46.78125,0.03125,-30.21875,0.0,0.0,0.0
1695752575945,-0.72558594,0.06347656,0.09765625,11.5625,12.96875,-1.53125,0.0,0.0,0.0
1695752575972,-0.80078125,-0.08300781,0.16894531,2.59375,17.78125,28.625,0.0,0.0,0.0
1695752576034,-0.81933594,-0.25976562,0.052734375,-3.0625,11.96875,37.28125,0.0,0.0,0.0
1695752576063,-0.9199219,-0.3544922,0.026367188,-1.71875,17.15625,50.09375,-26.25,-2.9375,-34.6875
1695752576093,-1.0458984,-0.57128906,0.08300781,25.125,9.1875,58.71875,0.0,0.0,0.0
1695752576181,-1.0400391,-0.7011719,-0.045898438,31.71875,17.53125,30.125,0.0,0.0,0.0
1695752576184,-1.1044922,-0.5546875,0.24511719,24.625,15.21875,0.125,0.0,0.0,0.0
1695752576213,-0.7451172,-0.1875,-0.0087890625,50.625,24.375,-3.84375,0.0,0.0,0.0
1695752576274,-1.0605469,0.17773438,0.140625,21.34375,49.28125,48.5,0.0,0.0,0.0
1695752576302,-1.9628906,-0.22070312,0.5332031,6.3125,-19.28125,32.03125,0.0,0.0,0.0
1695752576332,-1.1982422,0.123046875,-0.34765625,87.625,-10.53125,15.84375,0.0,0.0,0.0
1695752576393,-0.35839844,0.29785156,0.11035156,-37.375,55.375,26.40625,0.0,0.0,0.0
1695752576423,-0.92578125,0.2734375,-0.10058594,-114.21875,12.84375,32.9375,0.0,0.0,0.0
1695752576452,-1.25,-0.15527344,-0.2998047,114.53125,17.78125,66.46875,0.0,0.0,0.0
1695752576543,-0.8359375,-0.20214844,-0.12109375,-14.5625,11.1875,42.15625,0.0,0.0,0.0
1695752576546,-1.0117188,0.09765625,-0.12890625,-20.96875,30.53125,16.96875,0.0,0.0,0.0
1695752576572,-1.0507812,0.140625,-0.021484375,-6.9375,24.1875,23.5,-30.875,9.5,-37.875
1695752576632,-1.0283203,-0.016601562,-0.12207031,-40.84375,13.03125,19.03125,0.0,0.0,0.0
1695752576662,-0.85839844,-0.015625,-0.1640625,-21.75,14.65625,10.96875,0.0,0.0,0.0
1695752576691,-1.0029297,0.037109375,-0.1171875,-6.9375,13.09375,8.34375,0.0,0.0,0.0
1695752576756,-0.9716797,0.09277344,-0.08496094,-19.96875,13.8125,13.65625,0.0,0.0,0.0
1695752576782,-0.99316406,0.06738281,-0.10058594,-10.78125,9.90625,22.9375,0.0,0.0,0.0
1695752576812,-0.98339844,0.0625,-0.14648438,-7.34375,13.625,25.0625,0.0,0.0,0.0
1695752576872,-0.9902344,0.057617188,-0.125,-19.5,16.9375,26.96875,0.0,0.0,0.0
1695752576902,-0.9511719,0.055664062,-0.13183594,-9.3125,15.15625,30.3125,0.0,0.0,0.0
1695752576933,-0.96875,0.048828125,-0.1484375,-18.75,13.6875,25.5,0.0,0.0,0.0
1695752576993,-0.953125,0.036132812,-0.19921875,-21.8125,6.4375,16.84375,0.0,0.0,0.0
1695752577022,-1.0068359,0.10449219,-0.15527344,-37.125,10.6875,7.9375,0.0,0.0,0.0
1695752577052,-0.9873047,0.028320312,-0.10058594,-49.34375,6.375,9.5,-28.0625,17.875,-44.625
1695752577113,-1.0429688,-0.09667969,-0.18945312,-22.96875,4.28125,5.0,0.0,0.0,0.0
1695752577143,-1.2734375,-0.0703125,-0.13476562,-1.1875,-0.96875,-16.3125,0.0,0.0,0.0
1695752577171,-1.3349609,-0.12792969,-0.14257812,29.03125,-19.5,-30.71875,0.0,0.0,0.0
1695752577233,-1.0058594,-0.041015625,0.18261719,-2.90625,-50.8125,-57.6875,0.0,0.0,0.0
1695752577264,-0.9042969,0.056640625,0.20214844,6.5,-84.9375,-91.8125,0.0,0.0,0.0
1695752577292,-0.94628906,0.35546875,0.044921875,-10.65625,-78.09375,-104.4375,0.0,0.0,0.0
1695752577352,-1.1367188,0.23730469,-0.15527344,-8.03125,-75.46875,-84.0625,0.0,0.0,0.0
1695752577444,-1.3701172,0.119140625,-0.041992188,-41.65625,-35.5625,-74.53125,0.0,0.0,0.0
1695752577448,-1.0166016,-0.12011719,-0.10644531,-66.4375,-18.40625,-58.84375,0.0,0.0,0.0
1695752577472,-0.8876953,-0.12207031,-0.045898438,-56.84375,-7.90625,-59.09375,0.0,0.0,0.0
1695752577502,-0.86816406,-0.17578125,-0.00390625,16.09375,7.53125,-55.625,0.0,0.0,0.0
1695752577533,-0.87109375,-0.16894531,-0.0126953125,64.375,8.0,-40.1875,0.0,0.0,0.0
1695752577622,-0.8388672,-0.045898438,0.10449219,39.03125,6.1875,-35.15625,-27.125,1.0625,-35.9375
1695752577625,-0.7988281,0.06933594,0.14746094,12.0,16.4375,-7.03125,0.0,0.0,0.0
1695752577652,-0.8955078,-0.203125,0.17285156,-2.09375,11.3125,19.28125,0.0,0.0,0.0
1695752577712,-0.921875,-0.36914062,0.09082031,-14.96875,6.0625,21.90625,0.0,0.0,0.0
1695752577741,-0.8535156,-0.35058594,0.052734375,7.53125,7.65625,30.375,0.0,0.0,0.0
1695752577772,-0.8564453,-0.4013672,0.07714844,44.71875,16.8125,41.0,0.0,0.0,0.0
1695752577832,-1.0488281,-0.45214844,0.15527344,86.28125,5.875,33.1875,0.0,0.0,0.0
1695752577862,-1.1318359,-0.46484375,0.12890625,-24.4375,11.6875,0.34375,0.0,0.0,0.0
1695752577892,-0.82714844,-0.38476562,0.072265625,23.28125,15.6875,1.625,0.0,0.0,0.0
1695752577953,-0.828125,-0.036132812,-0.09765625,72.65625,25.15625,42.84375,0.0,0.0,0.0
1695752577982,-1.3369141,0.099609375,-0.018554688,53.6875,27.46875,71.21875,0.0,0.0,0.0
1695752578012,-1.8271484,-0.3125,-0.12207031,-8.3125,16.3125,14.28125,0.0,0.0,0.0
1695752578073,-0.703125,0.19824219,-0.08886719,71.09375,29.0,7.875,-28.8125,5.875,-35.75
1695752578101,-0.48339844,0.5234375,0.5048828,-197.96875,0.125,11.78125,0.0,0.0,0.0
1695752578133,-1.1455078,0.11816406,-0.4189453,76.9375,1.40625,56.3125,0.0,0.0,0.0
1695752578193,-0.98535156,-0.20996094,-0.34375,115.875,29.6875,67.0625,0.0,0.0,0.0
1695752578222,-0.91015625,-0.11035156,-0.103515625,-81.5,16.0625,15.25,0.0,0.0,0.0
1695752578252,-1.0566406,0.16796875,-0.0087890625,9.375,35.90625,18.40625,0.0,0.0,0.0
1695752578314,-1.0625,0.16503906,0.0029296875,7.96875,15.46875,24.03125,0.0,0.0,0.0
1695752578343,-0.96484375,0.0390625,-0.23632812,-40.4375,15.46875,11.875,0.0,0.0,0.0
1695752578372,-0.9394531,0.047851562,-0.13574219,-24.25,15.53125,11.03125,0.0,0.0,0.0
1695752578461,-0.9736328,0.055664062,-0.12988281,-17.0,16.625,12.5625,0.0,0.0,0.0
1695752578464,-0.9785156,0.10839844,-0.095703125,-22.0625,15.15625,18.40625,0.0,0.0,0.0
1695752578493,-0.99316406,0.080078125,-0.14648438,-7.09375,14.84375,26.71875,0.0,0.0,0.0
1695752578553,-0.96875,0.10546875,-0.12597656,-13.03125,19.96875,32.75,0.0,0.0,0.0
1695752578614,-0.9707031,0.049804688,-0.08886719,-16.0625,18.8125,34.90625,-26.875,15.3125,-43.875
1695752578628,-0.99121094,0.013671875,-0.13085938,-16.6875,15.875,30.75,0.0,0.0,0.0
1695752578732,-0.96875,-0.0107421875,-0.19238281,-16.1875,8.375,21.96875,0.0,0.0,0.0
1695752578734,-0.9863281,0.043945312,-0.19824219,-23.40625,11.6875,10.375,0.0,0.0,0.0
1695752578738,-0.9736328,0.043945312,-0.046875,-44.875,12.59375,6.21875,0.0,0.0,0.0
1695752578791,-1.0673828,-0.055664062,-0.17578125,-23.34375,1.0625,-2.34375,0.0,0.0,0.0
1695752578822,-1.2734375,-0.16308594,-0.15136719,-28.53125,-7.0625,-24.1875,0.0,0.0,0.0
1695752578853,-1.3701172,-0.29882812,-0.099609375,20.53125,-28.78125,-51.71875,0.0,0.0,0.0
1695752578942,-1.1826172,-0.0146484375,0.2861328,10.53125,-72.84375,-91.625,0.0,0.0,0.0
1695752578944,-0.97753906,0.3408203,0.083984375,17.6875,-97.09375,-114.21875,0.0,0.0,0.0
1695752578972,-0.9667969,0.4091797,-0.0859375,-55.125,-70.46875,-110.5,0.0,0.0,0.0
1695752579033,-1.0996094,0.03515625,-0.16894531,-57.875,-58.46875,-84.78125,0.0,0.0,0.0
1695752579062,-1.2138672,-0.057617188,-0.0146484375,-55.3125,-25.9375,-89.0625,-28.8125,8.4375,-37.125
1695752579092,-1.0214844,-0.052734375,-0.09375,-58.3125,-12.3125,-82.21875,0.0,0.0,0.0
1695752579152,-0.9580078,-0.16210938,0.001953125,20.71875,-0.09375,-77.09375,0.0,0.0,0.0
1695752579183,-0.9277344,-0.18164062,0.017578125,57.46875,-1.625,-54.21875,0.0,0.0,0.0
1695752579214,-0.7597656,-0.017578125,-0.06347656,71.8125,-1.375,-40.96875,0.0,0.0,0.0
1695752579303,-0.64453125,0.16113281,0.1171875,40.25,11.84375,-12.34375,0.0,0.0,0.0
1695752579306,-0.79589844,-0.11230469,0.20410156,22.0,13.875,22.5,0.0,0.0,0.0
1695752579332,-0.81640625,-0.1953125,0.13671875,5.40625,11.6875,40.6875,0.0,0.0,0.0
1695752579392,-0.8076172,-0.23339844,0.087890625,9.75,20.46875,61.28125,0.0,0.0,0.0
1695752579424,-1.0927734,-0.5566406,0.265625,32.625,16.0625,72.6875,0.0,0.0,0.0
1695752579451,-1.2441406,-0.82128906,0.09375,46.1875,0.125,52.125,0.0,0.0,0.0
1695752579511,-1.0185547,-0.5390625,0.024414062,8.09375,12.09375,-17.09375,0.0,0.0,0.0
1695752579543,-0.87890625,0.10253906,-0.16894531,11.8125,35.65625,14.46875,0.0,0.0,0.0
1695752579571,-1.7275391,0.24902344,0.9609375,-39.6875,43.65625,50.53125,-29.125,4.5625,-36.8125
1695752579663,-1.3320312,-0.16601562,-0.484375,121.25,-4.5,31.53125,0.0,0.0,0.0
1695752579665,-0.55371094,0.14746094,-0.16210938,30.90625,32.96875,23.84375,0.0,0.0,0.0
1695752579692,-0.7050781,0.39257812,0.234375,-151.9375,31.5,9.09375,0.0,0.0,0.0
1695752579752,-1.1640625,-0.043945312,-0.17773438,46.46875,21.125,68.28125,0.0,0.0,0.0
1695752579782,-0.92871094,-0.30273438,-0.09375,43.6875,11.96875,52.21875,0.0,0.0,0.0
1695752579812,-0.9785156,0.15136719,-0.17285156,6.03125,16.0625,12.375,0.0,0.0,0.0
1695752579872,-1.0449219,0.18164062,0.0126953125,-5.625,27.3125,27.34375,0.0,0.0,0.0
1695752579903,-1.0703125,-0.026367188,-0.10253906,-20.21875,16.0625,24.9375,0.0,0.0,0.0
1695752579932,-0.95703125,-0.0625,-0.1328125,-23.875,14.78125,10.96875,0.0,0.0,0.0
1695752580022,-0.88183594,0.0390625,-0.12695312,-4.59375,12.03125,6.28125,0.0,0.0,0.0
1695752580025,-0.9970703,0.10546875,-0.08886719,-19.6875,17.40625,9.375,0.0,0.0,0.0
1695752580054,-0.9902344,0.080078125,-0.08300781,-18.65625,10.46875,21.65625,-28.9375,12.0625,-43.125
1695752580112,-0.99902344,0.028320312,-0.15332031,-7.65625,13.9375,27.75,0.0,0.0,0.0
1695752580142,-1.0087891,0.033203125,-0.12011719,-17.3125,21.125,28.75,0.0,0.0,0.0
1695752580172,-0.9658203,0.03515625,-0.10449219,-12.40625,19.84375,30.4375,0.0,0.0,0.0
1695752580231,-0.9863281,0.034179688,-0.12890625,-12.21875,16.8125,29.65625,0.0,0.0,0.0
1695752580263,-0.9638672,0.06640625,-0.1328125,-25.15625,11.375,21.65625,0.0,0.0,0.0
1695752580292,-0.98339844,0.052734375,-0.17480469,-36.28125,9.71875,13.28125,0.0,0.0,0.0
1695752580351,-0.96484375,0.033203125,-0.14550781,-42.6875,11.90625,10.84375,0.0,0.0,0.0
1695752580381,-0.9814453,-0.12695312,-0.22460938,-17.78125,10.28125,15.125,0.0,0.0,0.0
1695752580412,-1.0429688,-0.14257812,-0.1875,-1.4375,9.0625,6.8125,0.0,0.0,0.0
1695752580471,-1.1689453,-0.0029296875,-0.1171875,29.5625,-2.71875,-14.34375,0.0,0.0,0.0
1695752580501,-1.4003906,0.005859375,-0.11328125,27.0625,-16.78125,-33.75,0.0,0.0,0.0
1695752580534,-1.1308594,-0.12792969,0.1875,14.0,-58.5625,-52.875,0.0,0.0,0.0
1695752580593,-1.0087891,0.03125,0.171875,13.03125,-88.375,-93.09375,-27.875,19.25,-43.4375
1695752580622,-0.9658203,0.3076172,0.009765625,12.84375,-90.75,-100.65625,0.0,0.0,0.0
1695752580651,-1.1298828,0.14257812,-0.16308594,16.28125,-80.65625,-86.6875,0.0,0.0,0.0
1695752580712,-1.1279297,0.046875,-0.14160156,-0.4375,-53.21875,-74.90625,0.0,0.0,0.0
1695752580742,-1.1669922,-0.12597656,-0.087890625,-55.875,-27.8125,-72.59375,0.0,0.0,0.0
1695752580774,-0.9814453,-0.16699219,-0.049804688,-16.25,-6.5625,-68.875,0.0,0.0,0.0
1695752580832,-0.9345703,-0.078125,-0.0107421875,2.0,2.6875,-71.0,0.0,0.0,0.0
1695752580862,-0.8261719,-0.036132812,-0.038085938,53.9375,12.46875,-53.96875,0.0,0.0,0.0
1695752580922,-0.8691406,-0.072265625,0.0390625,65.59375,14.59375,-31.6875,0.0,0.0,0.0
1695752580954,-0.7128906,0.22265625,0.1171875,57.59375,14.3125,-17.40625,0.0,0.0,0.0
1695752580990,-0.78515625,-0.055664062,0.19335938,9.0,24.75,23.0625,0.0,0.0,0.0
1695752581013,-0.8027344,-0.14648438,0.15039062,-1.5625,9.1875,40.6875,0.0,0.0,0.0
1695752581074,-0.85839844,-0.30664062,0.12988281,-15.28125,12.65625,57.0625,-27.875,0.3125,-33.8125
1695752581102,-1.0507812,-0.66503906,0.19921875,21.59375,0.75,63.34375,0.0,0.0,0.0
1695752581133,-1.3046875,-0.79589844,0.045898438,11.9375,10.34375,20.5625,0.0,0.0,0.0
1695752581192,-0.9111328,-0.5830078,0.06640625,12.4375,19.90625,-31.5,0.0,0.0,0.0
1695752581222,-0.67285156,-0.12890625,-0.11035156,33.84375,30.34375,22.15625,0.0,0.0,0.0
1695752581282,-1.3173828,0.27246094,0.31933594,8.6875,45.25,65.96875,0.0,0.0,0.0
1695752581312,-1.7851562,-0.203125,-0.14257812,95.9375,-12.75,35.9375,0.0,0.0,0.0
1695752581341,-0.79296875,0.064453125,-0.21289062,71.1875,37.90625,17.9375,0.0,0.0,0.0
1695752581372,-0.43359375,0.5605469,0.6376953,-209.3125,14.65625,26.28125,0.0,0.0,0.0
1695752581431,-1.1455078,0.13671875,-0.34472656,29.5625,2.75,54.6875,0.0,0.0,0.0
1695752581464,-1.0087891,-0.20800781,-0.2919922,108.6875,23.5,67.3125,0.0,0.0,0.0
1695752581492,-0.89160156,-0.041992188,-0.10839844,-39.5,8.25,8.40625,0.0,0.0,0.0
1695752581552,-1.0439453,0.21386719,0.021484375,-20.28125,36.03125,17.75,0.0,0.0,0.0
1695752581582,-1.0449219,0.109375,-0.048828125,6.9375,16.75,30.09375,-30.125,11.125,-40.25
1695752581612,-0.96484375,0.029296875,-0.16992188,-43.59375,14.375,16.28125,0.0,0.0,0.0
1695752581672,-0.93359375,-0.01171875,-0.14160156,-20.40625,15.34375,15.96875,0.0,0.0,0.0
1695752581702,-0.99316406,0.04296875,-0.107421875,-17.34375,16.625,13.125,0.0,0.0,0.0
1695752581731,-0.9658203,0.078125,-0.0859375,-16.9375,14.65625,21.28125,0.0,0.0,0.0
1695752581822,-0.984375,0.0390625,-0.1484375,-10.59375,16.9375,25.5,0.0,0.0,0.0
1695752581825,-0.9941406,0.08300781,-0.12792969,-19.3125,17.90625,26.40625,0.0,0.0,0.0
1695752581853,-0.9667969,0.057617188,-0.09472656,-23.875,16.0,28.75,0.0,0.0,0.0
1695752581912,-0.953125,0.020507812,-0.12988281,-23.46875,15.21875,27.8125,0.0,0.0,0.0
1695752581941,-0.9609375,-0.07324219,-0.20800781,-19.75,8.4375,22.03125,0.0,0.0,0.0
1695752581972,-1.0166016,-0.037109375,-0.21484375,-14.78125,9.59375,15.375,0.0,0.0,0.0
1695752582032,-1.0029297,-0.0048828125,-0.040039062,-23.78125,12.21875,10.125,0.0,0.0,0.0
1695752582062,-1.0449219,-0.09277344,-0.15820312,-7.96875,-1.3125,-2.625,-28.0625,21.5,-45.6875
1695752582092,-1.2460938,-0.16699219,-0.13867188,-24.125,-12.8125,-29.0625,0.0,0.0,0.0
1695752582152,-1.3779297,-0.359375,-0.036132812,10.28125,-33.375,-61.96875,0.0,0.0,0.0
1695752582182,-1.2861328,0.01171875,0.32226562,33.25,-87.75,-104.875,0.0,0.0,0.0
1695752582211,-1.0117188,0.47070312,0.041015625,18.71875,-105.625,-122.4375,0.0,0.0,0.0
1695752582272,-1.0185547,0.45996094,-0.09472656,-90.96875,-75.375,-104.1875,0.0,0.0,0.0
1695752582301,-1.1181641,-0.07519531,-0.048828125,-20.78125,-51.375,-70.1875,0.0,0.0,0.0
1695752582333,-1.1220703,-0.19042969,-0.09667969,-12.15625,-47.03125,-64.84375,0.0,0.0,0.0
1695752582392,-0.8857422,-0.09277344,-0.123046875,-0.625,-14.9375,-67.6875,0.0,0.0,0.0
1695752582422,-0.8886719,-0.030273438,-0.020507812,-11.375,-1.09375,-76.25,0.0,0.0,0.0
1695752582452,-0.8808594,-0.09277344,-0.00390625,51.0,18.5,-38.9375,0.0,0.0,0.0
1695752582512,-0.8017578,-0.12011719,-0.056640625,63.625,22.34375,-23.5,0.0,0.0,0.0
1695752582572,-0.74609375,0.115234375,0.11425781,40.125,22.65625,-5.875,0.0,0.0,0.0
1695752582575,-0.86035156,-0.111328125,0.1640625,15.28125,28.28125,23.65625,-29.25,-2.0625,-34.125
1695752582631,-0.8730469,-0.265625,0.12207031,-0.40625,25.46875,35.3125,0.0,0.0,0.0
1695752582661,-0.9658203,-0.31054688,0.13769531,13.28125,19.4375,44.3125,0.0,0.0,0.0
1695752582693,-1.015625,-0.41992188,0.13769531,40.6875,-7.96875,37.09375,0.0,0.0,0.0
1695752582752,-0.9667969,-0.515625,-0.1171875,19.6875,25.28125,23.78125,0.0,0.0,0.0
1695752582782,-1.0859375,-0.67871094,0.3046875,23.28125,8.6875,-8.625,0.0,0.0,0.0
1695752582811,-0.82128906,-0.25097656,-0.11816406,56.5,19.125,3.46875,0.0,0.0,0.0
1695752582872,-1.0966797,0.171875,0.16015625,26.9375,41.59375,39.34375,0.0,0.0,0.0
1695752582902,-1.7675781,-0.18652344,0.29492188,0.15625,-6.34375,23.375,0.0,0.0,0.0
1695752582962,-1.0859375,0.0126953125,-0.2529297,68.46875,12.65625,15.90625,0.0,0.0,0.0
1695752582992,-0.44726562,0.34960938,0.3388672,-83.15625,39.4375,31.0625,0.0,0.0,0.0
1695752583022,-1.1142578,0.12402344,-0.22460938,-17.34375,22.1875,52.71875,0.0,0.0,0.0
1695752583052,-1.0507812,-0.12402344,-0.265625,99.34375,22.90625,64.5625,-31.5,5.75,-36.9375
1695752583113,-0.8105469,-0.12207031,-0.03515625,-46.09375,-2.0625,23.375,0.0,0.0,0.0
1695752583143,-1.0117188,0.20507812,-0.11621094,27.0,24.5625,21.28125,0.0,0.0,0.0
1695752583171,-1.0546875,0.16308594,-0.15136719,19.3125,25.03125,31.125,0.0,0.0,0.0
1695752583233,-1.0800781,0.015625,-0.07519531,-53.75,19.1875,22.625,0.0,0.0,0.0
1695752583263,-0.95996094,-0.06933594,-0.13671875,-30.71875,14.71875,14.40625,0.0,0.0,0.0
1695752583292,-0.94628906,0.005859375,-0.16308594,-20.96875,12.78125,7.0,0.0,0.0,0.0
1695752583355,-0.9765625,0.0703125,-0.08496094,-28.46875,12.34375,11.59375,0.0,0.0,0.0
1695752583412,-0.95410156,0.046875,-0.06640625,-14.0625,9.28125,17.25,0.0,0.0,0.0
1695752583414,-0.97558594,0.06738281,-0.13671875,-5.625,11.6875,21.03125,0.0,0.0,0.0
1695752583472,-0.9560547,0.024414062,-0.123046875,-15.84375,16.9375,24.15625,0.0,0.0,0.0
1695752583502,-1.0253906,0.032226562,-0.107421875,-9.375,19.65625,23.375,0.0,0.0,0.0
1695752583531,-0.9472656,0.07324219,-0.12988281,-14.125,14.71875,24.15625,0.0,0.0,0.0
1695752583593,-0.9765625,0.072265625,-0.13183594,-14.625,13.875,24.03125,-30.125,15.5,-42.9375
1695752583622,-0.9814453,0.046875,-0.15039062,-22.4375,10.8125,20.96875,0.0,0.0,0.0
1695752583682,-0.9902344,0.040039062,-0.15820312,-25.46875,9.34375,15.90625,0.0,0.0,0.0
1695752583712,-0.9785156,0.0703125,-0.103515625,-24.875,11.625,14.75,0.0,0.0,0.0
1695752583741,-0.96972656,0.0048828125,-0.14453125,-24.875,10.875,13.71875,0.0,0.0,0.0
1695752583772,-1.0742188,-0.09082031,-0.21289062,-17.1875,2.03125,5.125,0.0,0.0,0.0
1695752583862,-1.1132812,-0.061523438,-0.13867188,-6.875,-4.3125,-9.21875,0.0,0.0,0.0
1695752583866,-1.3095703,-0.017578125,-0.103515625,14.4375,-17.5625,-33.09375,0.0,0.0,0.0
1695752583893,-1.2099609,-0.17480469,0.17480469,4.4375,-50.875,-57.375,0.0,0.0,0.0
1695752583952,-1.0449219,0.0068359375,0.21191406,12.25,-88.0,-98.21875,0.0,0.0,0.0
1695752583982,-0.9765625,0.36816406,0.016601562,-3.03125,-97.59375,-114.40625,0.0,0.0,0.0
1695752584042,-1.1445312,0.19140625,-0.13769531,-27.625,-84.75,-86.1875,0.0,0.0,0.0
1695752584073,-1.2109375,-0.020507812,-0.15136719,-18.28125,-48.5625,-75.28125,-32.5625,7.5625,-33.5
1695752584162,-1.0390625,-0.125,-0.06542969,-40.375,-28.59375,-63.5625,0.0,0.0,0.0
1695752584166,-0.9199219,-0.14453125,-0.10058594,-32.8125,-18.125,-71.46875,0.0,0.0,0.0
1695752584193,-0.93066406,-0.17578125,0.028320312,26.34375,-1.15625,-73.375,0.0,0.0,0.0
1695752584221,-0.88671875,-0.10839844,-0.095703125,58.5625,9.90625,-53.1875,0.0,0.0,0.0
1695752584252,-0.8154297,-0.0859375,0.041992188,62.46875,18.75,-34.875,0.0,0.0,0.0
1695752584312,-0.7519531,0.05859375,0.048828125,53.3125,29.5625,-15.8125,0.0,0.0,0.0
1695752584342,-0.75390625,-0.034179688,0.12792969,24.875,40.4375,13.53125,0.0,0.0,0.0
1695752584372,-0.828125,-0.18554688,0.11230469,9.9375,28.75,34.96875,0.0,0.0,0.0
1695752584433,-0.94628906,-0.27539062,0.13378906,2.84375,19.4375,47.84375,0.0,0.0,0.0
1695752584465,-0.99609375,-0.34472656,0.14648438,20.53125,5.875,46.3125,0.0,0.0,0.0
1695752584492,-0.93359375,-0.6015625,-0.0703125,25.5625,14.46875,36.25,0.0,0.0,0.0
1695752584554,-1.1835938,-0.72753906,0.20507812,-25.15625,47.5625,27.6875,0.0,0.0,0.0
1695752584583,-0.92871094,-0.56640625,-0.03125,126.0625,12.65625,-10.6875,-29.6875,1.8125,-33.8125
1695752584613,-0.88183594,-0.016601562,-0.16601562,57.21875,31.4375,24.34375,0.0,0.0,0.0
1695752584672,-1.6416016,0.14941406,0.5341797,10.53125,27.0,45.75,0.0,0.0,0.0
1695752584702,-1.5849609,0.14453125,-0.25976562,103.625,-16.53125,15.84375,0.0,0.0,0.0
1695752584732,-0.49804688,0.19042969,-0.060546875,-12.34375,40.375,28.625,0.0,0.0,0.0
1695752584791,-0.7753906,0.38671875,0.26367188,-139.0,6.96875,37.65625,0.0,0.0,0.0
1695752584823,-1.0498047,-0.0068359375,-0.41210938,84.5625,7.15625,59.6875,0.0,0.0,0.0
1695752584855,-1.0791016,-0.27539062,-0.045898438,82.8125,35.53125,70.4375,0.0,0.0,0.0
1695752584943,-0.9628906,0.09863281,-0.057617188,-61.0,3.6875,-1.0,0.0,0.0,0.0
1695752584946,-0.9892578,0.1484375,-0.061523438,15.96875,23.8125,25.9375,0.0,0.0,0.0
1695752584973,-1.0537109,0.0390625,-0.103515625,-33.21875,15.28125,19.875,0.0,0.0,0.0
1695752585032,-0.9091797,-0.0107421875,-0.12890625,-43.0625,17.21875,9.5,0.0,0.0,0.0
1695752585062,-0.9316406,-0.00390625,-0.123046875,-22.84375,10.625,9.4375,-31.625,10.5625,-39.5
1695752585122,-0.99316406,0.056640625,-0.08691406,-19.125,9.96875,11.28125,0.0,0.0,0.0
1695752585152,-0.9580078,0.0703125,-0.08886719,-18.875,10.9375,15.5,0.0,0.0,0.0
1695752585186,-0.9921875,0.043945312,-0.13476562,-3.875,12.21875,22.28125,0.0,0.0,0.0
1695752585212,-0.984375,0.0625,-0.12792969,-10.28125,16.5625,24.78125,0.0,0.0,0.0
1695752585272,-0.95410156,0.064453125,-0.09277344,-11.0,16.625,28.3125,0.0,0.0,0.0
1695752585302,-0.95703125,0.09375,-0.11816406,-4.71875,16.125,28.78125,0.0,0.0,0.0
1695752585334,-0.9814453,0.078125,-0.125,-24.5625,15.75,25.375,0.0,0.0,0.0
1695752585392,-0.9736328,-9.765625E-4,-0.1640625,-29.5625,11.0,19.09375,0.0,0.0,0.0
1695752585423,-0.9707031,-0.0146484375,-0.1796875,-28.90625,9.78125,13.96875,0.0,0.0,0.0
1695752585482,-1.0009766,-0.046875,-0.11328125,-33.40625,9.0625,10.25,0.0,0.0,0.0
1695752585513,-1.0703125,-0.091796875,-0.16308594,-13.15625,2.34375,0.0,0.0,0.0,0.0
1695752585542,-1.203125,-0.13378906,-0.14355469,-1.84375,-9.5,-14.34375,0.0,0.0,0.0
1695752585572,-1.4042969,-0.18164062,-0.0126953125,16.46875,-26.40625,-44.5625,-31.0625,19.25,-42.8125
1695752585632,-1.1650391,-0.10644531,0.26757812,6.8125,-76.875,-85.8125,0.0,0.0,0.0
1695752585663,-1.0117188,0.3017578,0.11425781,7.71875,-98.25,-120.75,0.0,0.0,0.0
1695752585694,-1.0537109,0.48046875,-0.0390625,-73.15625,-79.5,-116.53125,0.0,0.0,0.0
1695752585752,-1.1074219,0.0126953125,-0.13085938,-43.53125,-55.34375,-78.5625,0.0,0.0,0.0
1695752585784,-1.1357422,-0.17089844,-0.099609375,-35.59375,-41.5625,-70.6875,0.0,0.0,0.0
1695752585813,-1.0273438,-0.11230469,-0.055664062,-49.46875,-32.40625,-80.59375,0.0,0.0,0.0
1695752585872,-0.9501953,-0.08496094,-0.021484375,29.5625,-12.6875,-76.4375,0.0,0.0,0.0
1695752585903,-0.91503906,-0.06933594,0.028320312,23.03125,-3.78125,-60.625,0.0,0.0,0.0
1695752585932,-0.7441406,-0.052734375,0.016601562,57.78125,0.875,-32.84375,0.0,0.0,0.0
1695752585992,-0.7080078,0.06738281,0.03125,36.09375,15.40625,-16.25,0.0,0.0,0.0
1695752586023,-0.7324219,-0.00390625,0.1328125,10.21875,30.28125,17.8125,0.0,0.0,0.0
1695752586052,-0.8251953,-0.20996094,0.17578125,10.09375,22.0,39.125,-31.1875,-2.9375,-30.1875
1695752586143,-0.88378906,-0.26367188,0.119140625,0.15625,25.09375,52.46875,0.0,0.0,0.0
1695752586149,-1.0527344,-0.5058594,0.26171875,33.78125,17.09375,69.5625,0.0,0.0,0.0
1695752586174,-1.1416016,-0.8515625,-0.076171875,62.53125,5.4375,43.1875,0.0,0.0,0.0
1695752586232,-1.1835938,-0.7373047,0.25097656,-8.75,20.9375,-18.75,0.0,0.0,0.0
1695752586263,-0.6074219,-0.18164062,-0.08886719,42.28125,19.0625,-14.34375,0.0,0.0,0.0
1695752586293,-1.0302734,0.22851562,0.07519531,47.53125,61.46875,47.84375,0.0,0.0,0.0
1695752586352,-1.9863281,-0.19726562,0.90625,1.625,-17.375,48.5625,0.0,0.0,0.0
1695752586412,-1.2910156,0.001953125,-0.4609375,162.625,-10.53125,12.3125,0.0,0.0,0.0
1695752586415,-0.3408203,0.35058594,0.15039062,-66.5,64.90625,22.4375,0.0,0.0,0.0
1695752586472,-0.8203125,0.48046875,0.12792969,-142.65625,18.4375,28.5625,0.0,0.0,0.0
1695752586502,-1.2900391,-0.16894531,-0.30273438,117.71875,13.3125,73.0,0.0,0.0,0.0
1695752586533,-0.83691406,-0.2919922,-0.15039062,19.25,5.8125,56.875,0.0,0.0,0.0
1695752586592,-0.9472656,0.13085938,-0.15917969,2.0,25.46875,20.8125,-35.5625,9.8125,-37.875
1695752586622,-0.9863281,0.28320312,-0.0048828125,-2.53125,37.6875,33.3125,0.0,0.0,0.0
1695752586653,-1.0537109,0.03515625,-0.09472656,-5.75,8.875,35.4375,0.0,0.0,0.0
1695752586713,-0.88378906,-0.021484375,-0.15527344,-24.875,13.25,16.71875,0.0,0.0,0.0
1695752586743,-1.0048828,0.03125,-0.12597656,-21.15625,11.90625,13.71875,0.0,0.0,0.0
1695752586772,-0.95703125,0.078125,-0.09472656,-6.8125,14.0,20.625,0.0,0.0,0.0
1695752586865,-0.95996094,0.12011719,-0.12988281,4.625,13.03125,24.53125,0.0,0.0,0.0
1695752586872,-0.96777344,0.12988281,-0.10839844,-15.03125,19.84375,26.71875,0.0,0.0,0.0
1695752586892,-0.9814453,0.08496094,-0.07714844,-19.0625,17.78125,33.0625,0.0,0.0,0.0
1695752586952,-0.9423828,0.005859375,-0.09472656,-29.875,18.03125,30.625,0.0,0.0,0.0
1695752586982,-0.98339844,-0.109375,-0.16503906,-21.9375,10.28125,25.3125,0.0,0.0,0.0
1695752587015,-0.99609375,-0.16894531,-0.26367188,-2.53125,2.34375,14.625,0.0,0.0,0.0
1695752587072,-1.0283203,-0.07519531,-0.055664062,-26.5625,7.21875,0.71875,-33.75,21.9375,-44.0
1695752587103,-1.078125,-0.033203125,-0.13769531,-2.90625,-4.625,-20.9375,0.0,0.0,0.0
1695752587133,-1.4277344,-0.043945312,-0.0390625,-13.34375,-17.625,-49.09375,0.0,0.0,0.0
1695752587192,-1.3925781,-0.140625,0.051757812,11.8125,-51.875,-73.625,0.0,0.0,0.0
1695752587223,-1.1113281,0.15234375,0.1796875,-12.28125,-80.90625,-108.90625,0.0,0.0,0.0
1695752587255,-1.0166016,0.4892578,0.103515625,-66.375,-75.90625,-123.3125,0.0,0.0,0.0
1695752587312,-1.0380859,0.20214844,0.048828125,-63.9375,-51.9375,-78.0,0.0,0.0,0.0
1695752587342,-1.1445312,-0.072265625,-0.0087890625,-15.40625,-53.75,-64.46875,0.0,0.0,0.0
1695752587373,-0.9707031,-0.083984375,-0.15722656,-4.1875,-40.15625,-62.34375,0.0,0.0,0.0
1695752587433,-0.89941406,-0.046875,0.040039062,-53.84375,-18.53125,-66.84375,0.0,0.0,0.0
1695752587462,-0.88183594,-0.055664062,9.765625E-4,20.53125,-14.625,-51.28125,0.0,0.0,0.0
1695752587492,-0.79589844,-0.15527344,0.03125,31.59375,6.3125,-31.6875,0.0,0.0,0.0
1695752587552,-0.7988281,-0.11035156,-0.015625,37.5,23.09375,-18.6875,0.0,0.0,0.0
1695752587582,-0.8066406,-0.04296875,0.15332031,24.03125,25.46875,2.75,-32.6875,-4.4375,-29.9375
1695752587614,-0.8544922,-0.20996094,0.15332031,23.40625,23.09375,20.0625,0.0,0.0,0.0
1695752587702,-0.8730469,-0.29003906,0.10546875,22.5625,16.5625,26.65625,0.0,0.0,0.0
1695752587704,-0.9375,-0.2763672,0.12792969,31.21875,12.84375,32.65625,0.0,0.0,0.0
1695752587763,-1.0048828,-0.3564453,0.15332031,36.90625,5.21875,28.125,0.0,0.0,0.0
1695752587793,-0.98339844,-0.4716797,0.016601562,14.0625,19.84375,19.09375,0.0,0.0,0.0
1695752587822,-0.9394531,-0.45410156,0.13476562,8.28125,33.90625,16.28125,0.0,0.0,0.0
1695752587852,-0.8769531,-0.41796875,0.078125,40.6875,27.25,16.21875,0.0,0.0,0.0
1695752587912,-1.0019531,-0.025390625,-0.09082031,45.25,36.40625,44.0,0.0,0.0,0.0
1695752587943,-1.8173828,-0.18945312,0.2763672,24.8125,33.65625,36.375,0.0,0.0,0.0
1695752587972,-1.53125,0.24511719,-0.08984375,51.90625,-0.34375,1.28125,0.0,0.0,0.0
1695752588032,-0.41601562,0.35546875,0.19628906,-43.59375,35.59375,25.625,0.0,0.0,0.0
1695752588062,-0.9453125,0.3310547,-0.078125,-48.5,7.53125,49.5625,-33.125,2.875,-35.9375
1695752588093,-1.1386719,-0.046875,-0.4716797,77.96875,6.96875,55.71875,0.0,0.0,0.0
1695752588153,-0.98535156,-0.17773438,-0.24707031,64.3125,32.78125,57.53125,0.0,0.0,0.0
1695752588182,-0.8876953,0.02734375,0.01953125,-124.53125,5.28125,-2.6875,0.0,0.0,0.0
1695752588212,-1.0722656,0.055664062,-0.083984375,30.0625,17.28125,23.5625,0.0,0.0,0.0
1695752588273,-0.9375,0.06933594,-0.09667969,-38.78125,14.65625,10.0625,0.0,0.0,0.0
1695752588302,-0.90625,0.02734375,-0.15039062,-32.9375,15.59375,12.6875,0.0,0.0,0.0
1695752588334,-1.015625,-0.0234375,-0.125,-22.25,10.21875,13.90625,0.0,0.0,0.0
1695752588393,-0.96972656,0.040039062,-0.12597656,-4.0625,13.875,15.0,0.0,0.0,0.0
1695752588422,-0.9794922,0.076171875,-0.11328125,-3.75,13.75,16.71875,0.0,0.0,0.0
1695752588453,-0.9580078,0.091796875,-0.10253906,-15.65625,17.34375,20.8125,0.0,0.0,0.0
1695752588513,-0.99316406,0.095703125,-0.08886719,-22.4375,15.46875,24.40625,0.0,0.0,0.0
1695752588543,-0.9345703,0.06347656,-0.125,-24.5,14.65625,25.125,0.0,0.0,0.0
1695752588572,-0.9707031,0.028320312,-0.17773438,-25.0,14.3125,25.5,-33.625,14.3125,-41.4375
1695752588632,-0.9794922,-0.072265625,-0.2109375,-26.75,11.25,19.9375,0.0,0.0,0.0
1695752588663,-1.0107422,-0.038085938,-0.13867188,-31.8125,14.46875,16.09375,0.0,0.0,0.0
1695752588692,-1.0400391,-0.10839844,-0.13476562,-22.3125,7.09375,14.34375,0.0,0.0,0.0
1695752588753,-1.0605469,-0.07324219,-0.18261719,-7.34375,1.59375,-3.3125,0.0,0.0,0.0
1695752588782,-1.3291016,-0.12011719,-0.20898438,10.90625,-9.0625,-28.46875,0.0,0.0,0.0
1695752588812,-1.3134766,-0.08984375,-0.0048828125,17.625,-26.65625,-50.65625,0.0,0.0,0.0
1695752588872,-1.0302734,-0.041992188,0.24609375,-28.15625,-75.25,-88.03125,0.0,0.0,0.0
1695752588904,-0.9794922,0.23046875,0.15136719,-33.59375,-87.375,-122.8125,0.0,0.0,0.0
1695752588965,-1.0234375,0.32128906,-0.026367188,-48.5,-82.375,-100.125,0.0,0.0,0.0
1695752588993,-1.1513672,0.14453125,-0.1796875,-69.53125,-77.9375,-91.8125,0.0,0.0,0.0
1695752589022,-1.2978516,-0.09082031,0.06347656,-127.71875,-15.4375,-83.09375,0.0,0.0,0.0
1695752589053,-1.0029297,-0.18261719,-0.091796875,-8.8125,-17.0,-69.21875,-34.625,2.5625,-34.125
1695752589113,-0.9296875,-0.25878906,0.032226562,40.5625,-8.78125,-59.53125,0.0,0.0,0.0
1695752589142,-0.79785156,-0.05078125,-0.037109375,70.84375,-9.375,-53.25,0.0,0.0,0.0
1695752589172,-0.6796875,0.0126953125,0.0029296875,51.25,4.46875,-27.21875,0.0,0.0,0.0
1695752589233,-0.7138672,0.052734375,0.08300781,43.75,13.5625,-3.90625,0.0,0.0,0.0
1695752589262,-0.76464844,0.021484375,0.20703125,16.34375,14.40625,28.125,0.0,0.0,0.0
1695752589292,-0.8671875,-0.14453125,0.12890625,-11.25,11.0,47.71875,0.0,0.0,0.0
1695752589355,-0.9941406,-0.3876953,0.13574219,-20.84375,16.125,51.25,0.0,0.0,0.0
1695752589382,-1.0966797,-0.6875,0.08984375,-3.5625,4.96875,47.96875,0.0,0.0,0.0
1695752589412,-1.0751953,-0.84765625,-0.12695312,26.28125,10.46875,22.8125,0.0,0.0,0.0
1695752589504,-0.9296875,-0.53125,0.06933594,45.4375,12.59375,-4.59375,0.0,0.0,0.0
1695752589507,-0.86621094,-0.09375,-0.0625,54.125,30.34375,18.84375,0.0,0.0,0.0
1695752589534,-1.3193359,0.30566406,0.41992188,30.4375,47.1875,49.3125,0.0,0.0,0.0
1695752589592,-1.5126953,-0.20410156,-0.1875,62.71875,-4.0625,27.5625,-33.4375,3.0625,-34.4375
1695752589622,-0.8261719,0.12988281,-0.040039062,1.5625,33.71875,21.21875,0.0,0.0,0.0
1695752589652,-0.6484375,0.28027344,0.20800781,-136.0,10.625,27.8125,0.0,0.0,0.0
1695752589713,-1.0605469,0.03515625,-0.328125,63.6875,7.59375,52.125,0.0,0.0,0.0
1695752589742,-0.9716797,-0.2939453,-0.21386719,94.75,49.03125,65.34375,0.0,0.0,0.0
1695752589772,-0.9892578,-0.028320312,0.01171875,-34.03125,-4.25,0.96875,0.0,0.0,0.0
1695752589831,-0.9707031,0.22460938,-0.056640625,35.5,18.28125,22.4375,0.0,0.0,0.0
1695752589863,-1.03125,0.16503906,-0.17480469,34.65625,15.03125,31.40625,0.0,0.0,0.0
1695752589892,-0.9589844,0.028320312,-0.080078125,-34.375,17.84375,25.3125,0.0,0.0,0.0
1695752589952,-0.9423828,-0.005859375,-0.08984375,-6.1875,12.03125,17.8125,0.0,0.0,0.0
1695752589982,-0.96484375,0.051757812,-0.13671875,8.03125,14.0,20.25,0.0,0.0,0.0
1695752590012,-0.9716797,0.10449219,-0.07324219,-1.71875,14.1875,26.0,0.0,0.0,0.0
1695752590073,-0.9658203,0.111328125,-0.12011719,6.1875,13.1875,32.09375,-33.75,11.5625,-38.4375
1695752590102,-0.9873047,0.08105469,-0.12402344,-10.65625,18.9375,32.46875,0.0,0.0,0.0
1695752590132,-1.0,0.028320312,-0.047851562,-20.28125,17.59375,30.875,0.0,0.0,0.0
1695752590192,-0.9638672,-0.048828125,-0.09863281,-20.15625,14.40625,28.0,0.0,0.0,0.0
1695752590253,-0.9746094,-0.080078125,-0.17089844,-18.46875,9.0625,23.375,0.0,0.0,0.0
1695752590256,-0.9638672,-0.09375,-0.21875,-5.9375,5.4375,18.40625,0.0,0.0,0.0
1695752590312,-1.0439453,-0.048828125,-0.12402344,-6.0625,8.25,6.75,0.0,0.0,0.0
1695752590345,-1.0947266,0.022460938,-0.078125,13.9375,-2.0625,-22.46875,0.0,0.0,0.0
1695752590372,-1.3730469,0.16894531,-0.059570312,-17.84375,-18.0625,-55.96875,0.0,0.0,0.0
1695752590431,-1.3017578,0.14746094,0.12109375,-31.34375,-48.4375,-72.46875,0.0,0.0,0.0
1695752590462,-1.0029297,0.013671875,0.11621094,-92.0,-73.21875,-95.03125,0.0,0.0,0.0
1695752590492,-1.0068359,0.26757812,0.14257812,-87.84375,-73.40625,-110.125,0.0,0.0,0.0
1695752590553,-1.1074219,0.17480469,0.048828125,5.03125,-36.375,-57.5625,0.0,0.0,0.0
1695752590585,-1.0224609,-0.06738281,-0.055664062,23.03125,-40.625,-48.90625,-32.875,7.8125,-34.125
1695752590612,-0.9658203,-0.09277344,-0.11425781,0.78125,-33.0,-59.53125,0.0,0.0,0.0
1695752590672,-0.9394531,-0.03515625,0.0390625,-56.0625,-5.0,-56.03125,0.0,0.0,0.0
1695752590703,-0.8769531,-0.0029296875,0.030273438,0.40625,7.09375,-39.375,0.0,0.0,0.0
1695752590732,-0.8339844,-0.032226562,0.06542969,23.78125,19.0,-33.15625,0.0,0.0,0.0
1695752590792,-0.87109375,-0.05078125,0.0234375,29.75,22.34375,-21.125,0.0,0.0,0.0
1695752590824,-0.94921875,-0.17382812,0.09277344,11.6875,11.25,-7.09375,0.0,0.0,0.0
1695752590852,-0.91308594,-0.30371094,0.08496094,21.21875,2.875,-4.28125,0.0,0.0,0.0
1695752590913,-0.859375,-0.25390625,0.047851562,18.03125,3.375,-2.75,0.0,0.0,0.0
1695752590945,-0.8457031,-0.20214844,0.030273438,28.65625,7.34375,5.1875,0.0,0.0,0.0
1695752590973,-0.9238281,-0.20898438,0.125,36.78125,15.28125,16.21875,0.0,0.0,0.0
1695752591032,-1.0478516,-0.3154297,0.14648438,34.59375,6.4375,25.0,0.0,0.0,0.0
1695752591063,-1.0439453,-0.45898438,0.14453125,-0.6875,14.375,13.59375,-31.9375,0.5,-32.625
1695752591094,-0.9716797,-0.25,0.095703125,1.375,13.875,5.0,0.0,0.0,0.0
1695752591152,-1.0136719,-0.23632812,0.0029296875,24.28125,20.09375,22.625,0.0,0.0,0.0
1695752591182,-1.0205078,-0.13769531,-0.06542969,27.4375,28.28125,44.59375,0.0,0.0,0.0
1695752591213,-1.5078125,-0.3203125,0.22949219,-2.78125,56.46875,31.0,0.0,0.0,0.0
1695752591272,-1.0332031,0.01953125,-0.060546875,85.25,-0.03125,15.78125,0.0,0.0,0.0
1695752591304,-0.8378906,0.28515625,0.21484375,-11.1875,18.3125,24.28125,0.0,0.0,0.0
1695752591332,-0.8408203,0.20214844,-0.115234375,-11.8125,18.28125,46.75,0.0,0.0,0.0
1695752591391,-0.92089844,-0.12988281,-0.123046875,-7.78125,24.3125,58.71875,0.0,0.0,0.0
1695752591422,-1.0625,-0.24511719,-0.06347656,-44.09375,15.75,35.03125,0.0,0.0,0.0
1695752591454,-1.0087891,0.09472656,-0.15820312,39.9375,2.34375,24.40625,0.0,0.0,0.0
1695752591542,-1.0039062,0.13476562,-0.15625,33.96875,14.90625,29.46875,0.0,0.0,0.0
1695752591546,-1.0390625,0.07421875,-0.18847656,-28.65625,13.8125,19.75,0.0,0.0,0.0
1695752591572,-1.0224609,0.045898438,-0.047851562,-39.75,13.6875,23.125,-31.625,8.75,-36.8125
1695752591632,-0.9580078,-0.045898438,-0.140625,-9.0625,9.59375,18.84375,0.0,0.0,0.0
1695752591663,-0.94433594,-0.0546875,-0.16992188,-5.34375,9.84375,15.25,0.0,0.0,0.0
1695752591692,-0.99902344,0.03125,-0.09863281,-2.84375,11.625,14.5625,0.0,0.0,0.0
1695752591752,-0.9609375,0.0703125,-0.107421875,5.90625,10.9375,18.3125,0.0,0.0,0.0
1695752591783,-0.9550781,0.10546875,-0.12695312,0.84375,13.75,23.96875,0.0,0.0,0.0
1695752591841,-0.9765625,0.10546875,-0.12695312,-2.65625,15.6875,29.71875,0.0,0.0,0.0
1695752591872,-0.9707031,0.064453125,-0.13476562,-1.96875,17.0,33.75,0.0,0.0,0.0
1695752591902,-0.96484375,0.064453125,-0.10546875,-10.875,16.9375,28.96875,0.0,0.0,0.0
1695752591934,-0.9873047,0.0625,-0.17578125,-20.28125,6.90625,20.9375,0.0,0.0,0.0
1695752591992,-1.0039062,0.009765625,-0.1796875,-22.4375,6.65625,12.3125,0.0,0.0,0.0
1695752592022,-1.0,0.080078125,-0.07519531,-31.8125,7.21875,7.875,0.0,0.0,0.0
1695752592051,-1.0839844,0.034179688,-0.17871094,-26.03125,0.875,2.90625,-31.5,17.4375,-41.4375
1695752592111,-1.1923828,-0.05859375,-0.17285156,-26.09375,-8.46875,-6.65625,0.0,0.0,0.0
1695752592143,-1.2890625,-0.1328125,-0.08105469,-0.75,-19.34375,-27.71875,0.0,0.0,0.0
1695752592203,-1.0732422,-0.083984375,0.20019531,-3.8125,-51.625,-64.90625,0.0,0.0,0.0
1695752592232,-0.93066406,0.13378906,0.20410156,-1.4375,-82.0,-94.375,0.0,0.0,0.0
1695752592262,-0.97753906,0.37695312,0.033203125,-32.0,-82.375,-101.9375,0.0,0.0,0.0
1695752592292,-1.1416016,0.125,-0.09667969,-15.84375,-65.90625,-81.5625,0.0,0.0,0.0
1695752592352,-1.1591797,-0.041015625,-0.068359375,-27.3125,-41.90625,-75.6875,0.0,0.0,0.0
1695752592382,-1.0703125,-0.10253906,-0.016601562,-33.84375,-34.78125,-73.125,0.0,0.0,0.0
1695752592412,-0.9404297,0.038085938,-0.0029296875,-20.96875,-12.6875,-67.625,0.0,0.0,0.0
1695752592472,-0.9121094,-0.051757812,0.022460938,12.125,6.4375,-51.71875,0.0,0.0,0.0
1695752592503,-0.84375,-0.11816406,-0.0029296875,49.71875,14.59375,-34.625,0.0,0.0,0.0
1695752592537,-0.8652344,-0.053710938,0.03125,32.75,19.96875,-27.34375,0.0,0.0,0.0
1695752592592,-0.85058594,-0.048828125,0.13671875,16.625,21.4375,-14.71875,-28.625,-3.5625,-31.4375
1695752592623,-0.8417969,-0.19042969,0.12597656,21.46875,6.4375,0.40625,0.0,0.0,0.0
1695752592654,-0.8652344,-0.24414062,0.09863281,23.46875,2.28125,9.6875,0.0,0.0,0.0
1695752592711,-0.80566406,-0.18847656,0.07714844,28.59375,5.5,20.6875,0.0,0.0,0.0
1695752592743,-0.8339844,-0.26953125,0.15039062,28.34375,21.125,33.3125,0.0,0.0,0.0
1695752592804,-1.0175781,-0.3466797,0.24121094,47.34375,17.40625,42.84375,0.0,0.0,0.0
1695752592832,-1.1298828,-0.40722656,0.27246094,36.84375,7.71875,32.75,0.0,0.0,0.0
1695752592864,-1.0341797,-0.46191406,0.0859375,-11.5625,19.84375,6.8125,0.0,0.0,0.0
1695752592922,-1.0722656,-0.07421875,-0.07324219,10.71875,27.53125,35.8125,0.0,0.0,0.0
1695752592952,-1.7519531,-0.095703125,0.2841797,-20.40625,38.09375,45.65625,0.0,0.0,0.0
1695752592984,-1.0517578,-0.15917969,-0.20898438,64.5,11.75,18.71875,0.0,0.0,0.0
1695752593012,-0.61035156,0.31640625,0.07714844,-9.25,31.875,17.3125,0.0,0.0,0.0
1695752593072,-0.8701172,0.3857422,0.08984375,-57.34375,25.59375,37.40625,-30.0,1.8125,-34.125
1695752593102,-1.1708984,-0.07910156,-0.21679688,58.09375,12.78125,63.84375,0.0,0.0,0.0
1695752593141,-0.953125,-0.13574219,-0.19042969,9.75,3.25,39.46875,0.0,0.0,0.0
1695752593195,-0.9609375,0.08105469,-0.15136719,-2.15625,25.09375,21.09375,0.0,0.0,0.0
1695752593221,-1.0126953,0.14160156,-0.0146484375,-24.3125,26.9375,26.34375,0.0,0.0,0.0
1695752593252,-1.0126953,-0.001953125,-0.083984375,-14.125,15.53125,23.375,0.0,0.0,0.0
1695752593312,-0.8769531,0.030273438,-0.12792969,-23.03125,15.21875,12.5,0.0,0.0,0.0
1695752593341,-1.0078125,0.015625,-0.103515625,-13.34375,11.125,12.0,0.0,0.0,0.0
1695752593373,-0.95703125,0.016601562,-0.123046875,-13.34375,11.6875,14.5,0.0,0.0,0.0
1695752593432,-0.9902344,0.078125,-0.12695312,-8.21875,14.25,19.53125,0.0,0.0,0.0
1695752593462,-0.96875,0.111328125,-0.125,-10.21875,19.5,28.84375,0.0,0.0,0.0
1695752593491,-0.9892578,0.08300781,-0.12597656,-2.53125,21.375,38.4375,0.0,0.0,0.0
1695752593554,-0.94433594,0.051757812,-0.1015625,-12.59375,22.1875,37.34375,0.0,0.0,0.0
1695752593581,-0.95214844,0.0029296875,-0.109375,-20.78125,16.5,25.625,-30.75,12.5,-41.0
1695752593613,-0.9560547,-0.09667969,-0.26660156,-17.84375,6.84375,13.46875,0.0,0.0,0.0
1695752593673,-0.9902344,-0.0146484375,-0.07519531,-38.40625,9.28125,7.875,0.0,0.0,0.0
1695752593702,-1.1318359,-0.034179688,-0.13867188,-5.40625,-2.5,-3.3125,0.0,0.0,0.0
